Optical Power Monitor 3.1.3778.562

Power Meter,PM100USB
Power Meter SN,1908005
Sensor,S130VC
Sensor SN,200710110
Sensor Type,Photodiode
Wavelength,640 nm
Range,Auto

Start of Measurement,10/27/2021 12:34:53
Elapsed Time,00:00:30:000
Samples,8627

--Statistics--
Minimum [W],1.3378E-05
Maximum [W],0.0010369
Mean [W],0.00068331
Standard Deviation [W],0.00045193
Ratio,77.508 : 1

--Graph Data--
Time (ms),Power (W)
5.403,0.00095677
8.377,0.00095653
11.384,0.00095628
14.391,0.00095604
17.757,0.00095604
20.797,0.00095592
23.745,0.00095567
26.744,0.00095555
29.713,0.00095542
32.791,0.00095567
35.732,0.00095493
38.747,0.00095481
42.052,0.00095481
45.063,0.00095432
48.060,0.00095432
51.011,0.00095407
54.019,0.00095358
57.085,0.00095371
60.035,0.00095346
63.051,0.00095334
66.093,0.00095334
69.035,0.00095322
72.056,0.00095334
75.054,0.00095273
78.054,0.00095334
81.050,0.00095395
84.070,0.0009553
87.036,0.00095542
90.056,0.00095555
93.047,0.00095604
96.054,0.00095628
99.053,0.00095616
102.051,0.00095628
105.051,0.00095628
108.022,0.00095604
111.033,0.00095616
114.027,0.00095616
117.025,0.00095592
120.027,0.00095616
123.040,0.00095579
126.031,0.00095604
129.027,0.00095567
132.027,0.00095542
135.030,0.0009553
138.369,0.00095493
141.352,0.00095493
144.367,0.00095457
147.342,0.00095444
150.368,0.0009542
153.455,0.00095371
156.346,0.00095358
159.369,0.00095322
162.344,0.00095322
165.368,0.00095346
168.370,0.00095444
171.351,0.00095493
174.345,0.0009553
177.345,0.00095542
180.345,0.00095579
183.350,0.00095641
186.348,0.00095579
189.346,0.00095628
192.344,0.00095641
195.342,0.00095628
198.344,0.00095616
201.353,0.00095604
204.345,0.00095616
207.344,0.00095592
210.344,0.00095604
213.684,0.00095592
216.686,0.00095592
219.688,0.00095579
222.684,0.0009553
225.682,0.0009553
228.686,0.00095518
231.682,0.00095469
234.687,0.00095481
237.688,0.00095481
240.685,0.0009542
243.684,0.00095432
246.687,0.00095371
249.650,0.00095383
252.684,0.00095371
255.684,0.00095383
258.685,0.00095322
261.684,0.00095322
264.658,0.00095334
267.686,0.00095273
270.683,0.00095236
273.685,0.00095346
276.684,0.00095481
279.686,0.00095493
282.680,0.00095518
285.680,0.0009553
288.678,0.0009553
291.718,0.00095567
294.737,0.00095542
298.118,0.00095555
301.377,0.00095555
304.375,0.0009553
307.353,0.0009553
310.357,0.00095518
313.374,0.00095506
316.321,0.00095469
319.377,0.00095469
322.349,0.00095469
325.348,0.00095444
328.375,0.00095444
331.406,0.0009542
334.666,0.00095407
337.724,0.00095432
340.679,0.00095383
343.727,0.00095371
346.698,0.00095395
350.089,0.00095334
353.355,0.00095334
356.353,0.00095334
359.359,0.00095457
362.350,0.00095542
365.355,0.00095579
368.385,0.00095604
371.352,0.00095653
374.340,0.00095653
377.349,0.00095653
380.338,0.00095628
383.341,0.00095592
386.349,0.00095592
389.349,0.00095579
392.354,0.00095542
395.359,0.00095555
398.352,0.0009553
401.348,0.00095518
404.354,0.00095506
407.351,0.00095457
410.358,0.00095457
413.346,0.00095444
416.318,0.00095407
419.319,0.00095407
422.350,0.00095407
425.357,0.00095383
428.353,0.00095371
431.352,0.00095358
434.355,0.00095371
437.350,0.00095346
440.323,0.00095322
443.661,0.00095358
446.692,0.00095334
449.664,0.00095285
452.745,0.00095309
455.672,0.00095273
458.692,0.00095395
461.698,0.00095493
464.668,0.00095542
467.691,0.00095628
470.667,0.00095665
473.695,0.00095653
476.692,0.0009569
479.667,0.0009569
482.666,0.00095665
485.668,0.00095677
488.694,0.00095641
491.693,0.00095616
494.692,0.00095616
497.634,0.00095604
500.666,0.00095555
503.671,0.00095542
506.669,0.00095567
509.666,0.00095567
512.760,0.0009553
515.692,0.0009553
518.665,0.00095493
521.667,0.00095469
524.669,0.00095444
527.668,0.00095444
530.667,0.00095444
533.665,0.0009542
536.668,0.00095395
539.661,0.00095395
542.667,0.00095371
545.628,0.00095469
548.660,0.00095567
551.661,0.00095616
554.685,0.00095702
557.655,0.00095739
560.623,0.00095751
563.671,0.00095763
566.661,0.000958
569.655,0.00095788
572.733,0.00095776
575.654,0.00095776
578.656,0.00095776
581.656,0.00095776
584.656,0.00095788
587.662,0.00095751
590.660,0.00095763
593.660,0.00095739
596.654,0.00095739
599.623,0.00095726
602.658,0.0009569
605.657,0.0009569
608.655,0.00095677
611.634,0.00095653
614.657,0.00095592
617.655,0.00095579
620.662,0.00095567
623.621,0.0009553
626.659,0.00095506
629.657,0.00095444
632.758,0.00095432
635.982,0.00095457
638.972,0.00095383
641.967,0.00095358
644.968,0.00095358
647.975,0.00095322
651.054,0.00095309
653.934,0.00095358
656.971,0.00095309
659.977,0.00095285
662.967,0.00095358
665.967,0.00095481
668.936,0.00095604
672.293,0.00095641
675.296,0.00095677
678.291,0.00095714
681.294,0.00095739
684.255,0.00095739
687.289,0.00095788
690.288,0.00095776
693.288,0.00095751
696.288,0.00095751
699.266,0.00095726
702.289,0.00095726
705.287,0.00095726
708.287,0.00095714
711.289,0.0009569
714.287,0.00095677
717.267,0.00095641
720.261,0.00095653
723.266,0.00095641
726.287,0.00095641
729.261,0.00095567
732.259,0.0009553
735.264,0.00095518
738.263,0.00095493
741.264,0.00095481
744.261,0.00095457
747.264,0.0009542
750.260,0.00095371
753.254,0.00095371
756.263,0.00095346
759.261,0.00095334
762.261,0.00095322
765.263,0.00095309
768.255,0.00095322
771.266,0.00095285
774.263,0.00095322
777.261,0.00095273
780.261,0.00095297
783.227,0.00095297
786.263,0.00095273
789.261,0.00095273
792.262,0.00095273
795.264,0.00095322
798.261,0.00095432
801.259,0.00095542
804.263,0.00095567
807.261,0.00095567
810.265,0.00095628
813.289,0.00095604
816.259,0.00095628
819.239,0.00095628
822.263,0.00095641
825.260,0.00095641
828.261,0.00095604
831.264,0.00095592
834.264,0.00095616
837.261,0.00095579
840.261,0.00095579
843.242,0.00095506
846.262,0.00095518
849.262,0.00095481
852.263,0.00095481
855.260,0.00095432
858.241,0.00095444
861.263,0.00095395
864.260,0.00095383
867.239,0.00095371
870.263,0.00095322
873.262,0.00095309
876.260,0.00095297
879.235,0.00095334
882.263,0.00095285
885.261,0.00095273
888.257,0.0009526
891.238,0.00095395
894.262,0.00095481
897.234,0.00095542
900.262,0.00095616
903.234,0.00095641
906.236,0.00095653
909.235,0.00095677
912.235,0.0009569
915.239,0.00095714
918.235,0.00095714
921.234,0.00095665
924.237,0.00095702
927.235,0.0009569
930.235,0.00095665
933.237,0.00095677
936.236,0.00095677
939.240,0.00095641
942.234,0.00095628
945.240,0.00095628
948.235,0.00095567
951.235,0.00095579
954.236,0.0009553
957.236,0.00095481
960.235,0.00095481
963.239,0.00095481
966.253,0.00095481
969.235,0.0009542
972.237,0.00095383
975.234,0.00095358
978.234,0.00095358
981.235,0.00095334
984.235,0.00095322
987.239,0.00095309
990.234,0.00095297
993.234,0.00095273
996.234,0.0009526
999.234,0.00095248
1006.059,0.00095223
1009.216,0.00095199
1012.262,0.00095162
1015.261,0.0009515
1018.264,0.00095187
1021.265,0.00095297
1024.261,0.00095371
1027.268,0.00095432
1030.267,0.00095493
1033.332,0.00095542
1036.604,0.00095567
1039.607,0.00095579
1042.577,0.00095592
1045.580,0.00095604
1048.577,0.00095592
1051.581,0.00095555
1054.914,0.00095555
1057.920,0.00095592
1060.914,0.00095567
1063.914,0.00095555
1066.978,0.00095579
1069.887,0.00095567
1072.918,0.00095542
1075.913,0.00095506
1078.908,0.00095542
1081.905,0.00095506
1084.877,0.00095481
1087.909,0.00095457
1090.906,0.00095444
1093.907,0.00095432
1096.907,0.00095432
1099.888,0.00095383
1102.908,0.00095383
1105.905,0.00095346
1108.908,0.00095334
1111.908,0.00095297
1115.241,0.00095285
1118.247,0.00095285
1121.240,0.00095248
1124.240,0.00095334
1127.245,0.0009542
1130.241,0.00095469
1133.245,0.00095506
1136.246,0.00095542
1139.245,0.00095579
1142.241,0.00095628
1145.250,0.00095653
1148.247,0.00095628
1151.213,0.00095616
1154.582,0.00095616
1157.556,0.00095604
1160.584,0.00095579
1163.559,0.00095567
1166.555,0.00095579
1169.558,0.00095542
1172.639,0.00095518
1175.895,0.00095481
1178.895,0.00095481
1181.863,0.00095444
1184.899,0.00095407
1187.899,0.00095407
1190.894,0.00095395
1193.882,0.00095358
1196.894,0.00095358
1199.863,0.00095334
1202.893,0.00095334
1205.895,0.00095297
1208.894,0.00095285
1211.906,0.00095285
1214.892,0.00095273
1217.896,0.00095248
1220.897,0.00095187
1223.895,0.00095174
1226.894,0.00095236
1229.899,0.00095334
1232.865,0.00095383
1235.898,0.00095432
1238.895,0.00095444
1241.900,0.00095469
1244.894,0.00095444
1247.894,0.00095444
1250.866,0.0009553
1253.894,0.00095518
1256.893,0.00095506
1259.905,0.00095506
1262.894,0.00095518
1265.894,0.0009553
1268.898,0.00095542
1271.894,0.00095555
1274.894,0.00095506
1277.898,0.0009553
1280.897,0.00095493
1283.838,0.00095457
1287.556,0.00095481
1290.522,0.00095457
1293.560,0.00095457
1296.522,0.00095444
1299.546,0.00095444
1302.562,0.00095395
1305.558,0.00095383
1308.555,0.00095346
1311.557,0.00095309
1314.562,0.00095285
1317.559,0.00095309
1320.556,0.00095248
1323.535,0.00095248
1326.556,0.00095248
1329.555,0.00095199
1332.555,0.0009515
1335.559,0.00095174
1338.558,0.0009515
1341.560,0.00095125
1344.556,0.0009515
1347.532,0.00095273
1350.506,0.00095322
1353.522,0.00095383
1356.556,0.00095395
1359.555,0.00095469
1362.530,0.00095469
1365.556,0.00095469
1368.504,0.00095506
1371.535,0.00095518
1374.555,0.0009553
1377.537,0.00095506
1380.555,0.00095518
1383.519,0.00095506
1386.556,0.00095493
1389.560,0.00076328
1392.556,0.00062034
1395.533,0.00050931
1398.560,0.00042084
1401.553,0.00034968
1404.546,0.00029103
1407.555,0.00024343
1410.561,0.00020404
1413.867,0.00016871
1416.841,0.00014282
1419.870,0.00012122
1422.894,0.00010355
1425.867,8.969E-05
1428.869,7.742E-05
1431.835,6.7605E-05
1434.844,5.9752E-05
1437.840,5.2636E-05
1440.869,4.7605E-05
1443.872,4.3066E-05
1446.869,3.9139E-05
1449.926,3.6195E-05
1453.190,3.325E-05
1456.191,3.1042E-05
1459.196,2.9201E-05
1462.188,2.7729E-05
1465.191,2.6747E-05
1468.165,2.6011E-05
1471.190,2.5029E-05
1474.219,2.3925E-05
1477.157,2.3312E-05
1480.193,2.3066E-05
1483.198,2.233E-05
1486.188,2.1839E-05
1489.185,2.1717E-05
1492.188,2.1349E-05
1495.187,2.0858E-05
1498.188,2.0735E-05
1501.162,2.0981E-05
1504.188,2.049E-05
1507.191,2.0244E-05
1510.187,2.0244E-05
1513.188,1.9876E-05
1516.161,2.0122E-05
1519.192,1.9631E-05
1522.189,2.0122E-05
1525.157,1.9508E-05
1528.193,1.9631E-05
1531.193,1.9263E-05
1534.544,1.9631E-05
1537.527,1.9263E-05
1540.525,1.9017E-05
1543.529,1.9263E-05
1546.529,1.9263E-05
1549.499,1.9017E-05
1552.530,1.9385E-05
1555.508,1.914E-05
1558.529,1.8895E-05
1561.528,1.8895E-05
1564.533,1.8649E-05
1567.497,1.8772E-05
1570.851,1.8772E-05
1573.846,1.9017E-05
1576.865,1.8649E-05
1579.819,1.8649E-05
1582.842,1.8649E-05
1585.841,1.8649E-05
1588.841,1.8772E-05
1591.841,1.8404E-05
1594.871,1.8527E-05
1597.841,1.8649E-05
1600.841,1.8772E-05
1603.813,1.8649E-05
1606.841,1.8159E-05
1609.845,1.8404E-05
1612.843,1.8281E-05
1615.841,1.8404E-05
1618.811,1.8159E-05
1621.846,1.8281E-05
1624.841,1.8404E-05
1627.850,1.8159E-05
1630.838,1.7913E-05
1633.840,1.8404E-05
1636.845,1.8404E-05
1639.840,1.8404E-05
1642.841,1.8036E-05
1645.840,1.8404E-05
1648.804,1.8281E-05
1651.846,1.8281E-05
1655.145,1.8159E-05
1658.188,1.7913E-05
1661.130,1.8281E-05
1664.131,1.8281E-05
1667.167,1.8281E-05
1670.166,1.8159E-05
1673.164,1.8159E-05
1676.133,1.8159E-05
1679.120,1.7913E-05
1682.158,1.8281E-05
1685.165,1.8404E-05
1688.162,1.8036E-05
1691.166,1.7913E-05
1694.166,1.779E-05
1795.856,1.722E-05
1798.834,1.722E-05
1801.820,1.7208E-05
1804.818,1.7208E-05
1807.819,1.7208E-05
1810.816,1.7183E-05
1813.814,1.7208E-05
1816.821,1.7195E-05
1819.823,1.7208E-05
1822.815,1.717E-05
1825.806,1.7208E-05
1828.804,1.7183E-05
1831.808,1.7183E-05
1834.783,1.7208E-05
1837.808,1.7133E-05
1840.806,1.7158E-05
1843.811,1.7133E-05
1846.811,1.7183E-05
1849.806,1.7133E-05
1852.809,1.7158E-05
1856.128,1.7133E-05
1859.124,1.7133E-05
1862.127,1.7121E-05
1865.126,1.7133E-05
1868.141,1.7146E-05
1871.135,1.7133E-05
1874.137,1.7158E-05
1877.135,1.7158E-05
1880.138,1.7133E-05
1883.108,1.7108E-05
1886.136,1.7133E-05
1889.140,1.7146E-05
1892.139,1.7108E-05
1895.136,1.7096E-05
1898.135,1.7096E-05
1901.142,1.7108E-05
1904.135,1.7108E-05
1907.146,1.7121E-05
1910.133,1.7047E-05
1913.103,1.7047E-05
1916.112,1.7059E-05
1919.135,1.7009E-05
1922.135,1.7009E-05
1925.137,1.7009E-05
1928.141,1.7009E-05
1931.141,1.6935E-05
1934.135,1.696E-05
1937.144,1.6923E-05
1940.139,1.6947E-05
1943.135,1.6935E-05
1946.133,1.691E-05
1949.182,1.691E-05
1952.476,1.6898E-05
1955.456,1.6885E-05
1958.473,1.6898E-05
1961.415,1.6885E-05
1964.447,1.691E-05
1967.478,1.6873E-05
1970.448,1.6885E-05
1973.453,1.691E-05
1976.486,1.691E-05
1979.784,1.6898E-05
1982.760,1.6947E-05
1985.792,1.6923E-05
1988.789,1.6873E-05
1991.796,1.691E-05
1995.793,1.6935E-05
1998.793,1.696E-05
2001.780,1.6885E-05
2004.789,1.6947E-05
2007.787,1.691E-05
2010.795,1.6935E-05
2013.755,1.6885E-05
2016.801,1.6923E-05
2019.797,1.6885E-05
2022.789,1.6885E-05
2025.789,1.6898E-05
2028.791,1.6923E-05
2031.788,1.6873E-05
2034.755,1.6873E-05
2037.795,1.6873E-05
2040.791,1.6885E-05
2043.765,1.6923E-05
2046.794,1.6923E-05
2049.775,1.6873E-05
2052.768,1.6861E-05
2055.790,1.6873E-05
2058.795,1.6873E-05
2061.790,1.6873E-05
2064.791,1.6873E-05
2067.767,1.6873E-05
2070.730,1.6873E-05
2073.762,1.6873E-05
2076.763,1.6873E-05
2079.764,1.6898E-05
2082.743,1.6873E-05
2085.765,1.6836E-05
2088.782,1.6885E-05
2091.775,1.6898E-05
2094.764,1.6898E-05
2195.785,1.6671E-05
2199.119,1.666E-05
2202.762,1.6668E-05
2205.763,1.6678E-05
2208.768,1.667E-05
2211.742,1.6674E-05
2214.763,1.6684E-05
2217.760,1.6686E-05
2220.775,1.6684E-05
2223.761,1.6695E-05
2226.731,1.6698E-05
2229.737,1.6689E-05
2232.747,1.6696E-05
2235.742,1.6705E-05
2238.729,1.6692E-05
2241.762,1.6692E-05
2244.767,1.6707E-05
2247.736,1.67E-05
2250.763,1.669E-05
2253.738,1.6696E-05
2256.788,1.6698E-05
2259.746,1.6684E-05
2262.741,1.6684E-05
2265.742,1.6686E-05
2268.737,1.667E-05
2271.733,1.6655E-05
2274.734,1.666E-05
2277.737,1.6642E-05
2280.737,1.662E-05
2283.740,1.6618E-05
2286.738,1.6602E-05
2289.705,1.6579E-05
2292.737,1.6568E-05
2295.736,1.656E-05
2298.739,1.6538E-05
2301.739,1.6522E-05
2304.739,1.6515E-05
2307.743,1.6494E-05
2310.741,1.6473E-05
2313.737,1.6464E-05
2316.735,1.645E-05
2319.733,1.6426E-05
2322.735,1.6416E-05
2325.736,1.641E-05
2328.737,1.6384E-05
2331.742,1.6371E-05
2334.702,1.6367E-05
2337.705,1.6351E-05
2340.737,1.6336E-05
2343.736,1.634E-05
2346.742,1.6335E-05
2349.739,1.6324E-05
2352.757,1.6328E-05
2355.745,1.6334E-05
2358.741,1.633E-05
2361.736,1.6329E-05
2364.737,1.6346E-05
2367.739,1.6345E-05
2370.737,1.6342E-05
2373.737,1.636E-05
2377.060,1.637E-05
2380.032,1.6368E-05
2383.060,1.6382E-05
2386.057,1.6392E-05
2389.057,1.6392E-05
2392.063,1.645E-05
2395.057,1.7159E-05
2398.058,2.4174E-05
2401.057,3.107E-05
2404.057,3.661E-05
2407.058,4.1143E-05
2410.057,4.4853E-05
2413.057,4.7899E-05
2416.058,5.04E-05
2419.060,5.2457E-05
2422.058,5.4136E-05
2624.696,0.0009753
2627.685,0.0009742
2630.679,0.00097309
2633.679,0.00097211
2636.682,0.00097174
2639.678,0.00097174
2642.682,0.0009726
2645.678,0.00097334
2648.678,0.00097346
2651.685,0.00097383
2654.678,0.0009742
2657.680,0.0009742
2660.683,0.0009742
2663.679,0.00097383
2666.679,0.00097383
2669.683,0.00097395
2672.682,0.00097371
2675.685,0.00097334
2678.655,0.00097285
2681.656,0.00097272
2684.683,0.00097211
2687.658,0.00097162
2690.682,0.00097125
2693.678,0.00097101
2696.661,0.00097076
2699.656,0.00097015
2702.657,0.00097003
2705.684,0.00096953
2708.693,0.00096953
2711.651,0.00096917
2714.656,0.0009688
2717.657,0.00096978
2720.658,0.00097027
2723.632,0.00097113
2726.658,0.00097162
2729.658,0.00097199
2732.652,0.00097223
2735.660,0.00097236
2738.660,0.00097236
2741.663,0.00097223
2744.661,0.00097248
2747.664,0.00097211
2750.661,0.00097187
2753.664,0.00097199
2756.658,0.0009715
2759.658,0.00097162
2762.655,0.00097187
2765.597,0.00097137
2768.660,0.00097125
2771.669,0.00097113
2774.681,0.00097113
2777.663,0.00097076
2780.659,0.00097076
2783.646,0.00097101
2786.650,0.00097052
2789.619,0.00097052
2792.625,0.00097039
2795.635,0.00097027
2799.024,0.00097162
2802.057,0.00097297
2805.322,0.00097395
2808.342,0.0009742
2811.322,0.00097493
2814.316,0.00097579
2817.320,0.00097591
2820.316,0.00097604
2823.316,0.00097677
2826.314,0.00097665
2829.316,0.00097702
2832.282,0.00097714
2835.327,0.0009769
2838.317,0.0009769
2841.317,0.00097739
2844.321,0.00097726
2847.319,0.00097714
2850.315,0.00097677
2853.322,0.00097702
2856.319,0.00097665
2859.322,0.00097665
2862.318,0.00097604
2865.322,0.00097616
2868.316,0.00097641
2871.283,0.00097616
2874.314,0.00097628
2877.316,0.00097567
2880.318,0.00097616
2883.294,0.00097567
2886.283,0.00097567
2889.317,0.00097653
2892.318,0.00097763
2895.318,0.00097886
2898.319,0.00097996
2901.335,0.00098095
2904.259,0.00098131
2907.327,0.00098193
2910.634,0.00098217
2913.633,0.00098266
2916.629,0.00098303
2919.636,0.00098364
2922.633,0.00098377
2925.970,0.00098377
2928.969,0.00098426
2931.974,0.00098487
2934.968,0.00098463
2937.974,0.00098487
2940.972,0.00098524
2943.969,0.00098512
2946.975,0.00098499
2949.974,0.00098499
2952.969,0.00098512
2955.979,0.00098524
2958.975,0.00098536
2961.969,0.00098524
2964.969,0.00098548
2968.291,0.00098573
2971.306,0.00098598
2974.292,0.00098622
2977.321,0.00098622
2980.293,0.00098671
2983.293,0.00098745
2986.313,0.00098757
2989.290,0.00098806
2992.288,0.00098843
2995.295,0.00098978
2998.286,0.00099137
3001.288,0.00099272
3004.282,0.00099383
3007.281,0.00099456
3010.278,0.00099518
3013.279,0.00099579
3016.299,0.0009964
3019.288,0.00099677
3022.283,0.00099677
3025.281,0.00099665
3028.285,0.0009969
3031.285,0.00099702
3034.284,0.00099677
3037.280,0.00099677
3040.271,0.00099665
3043.287,0.00099653
3046.281,0.0009964
3049.255,0.00099555
3052.262,0.00099567
3055.291,0.00099542
3058.261,0.00099567
3061.291,0.00099456
3064.295,0.00099456
3067.270,0.00099432
3070.292,0.00099407
3073.268,0.00099358
3076.296,0.00099321
3079.295,0.00099309
3082.262,0.0009926
3085.293,0.00099297
3088.269,0.00099272
3091.276,0.00099248
3094.292,0.0009926
3097.231,0.00099297
3100.264,0.00099309
3103.258,0.00099297
3106.291,0.0009926
3109.291,0.00099285
3112.264,0.00099248
3115.270,0.00099236
3118.267,0.00099223
3121.291,0.00099199
3124.267,0.0009926
3127.295,0.00099321
3130.291,0.00099407
3133.290,0.00099469
3136.288,0.00099518
3139.275,0.00099493
3142.271,0.00099567
3145.267,0.00099579
3148.292,0.00099604
3151.273,0.0009964
3154.265,0.00099665
3157.265,0.00099665
3160.264,0.00099702
3163.270,0.00099714
3166.254,0.00099726
3169.269,0.00099751
3172.265,0.00099726
3175.265,0.00099763
3178.271,0.00099775
3181.234,0.00099751
3184.231,0.00099775
3187.273,0.00099775
3190.272,0.00099775
3193.264,0.00099763
3196.264,0.00099751
3199.244,0.00099739
3202.264,0.00099751
3205.263,0.00099788
3208.264,0.00099788
3211.270,0.00099861
3214.264,0.00099837
3217.235,0.00099874
3220.265,0.00099849
3223.264,0.00099874
3226.290,0.00099898
3229.267,0.0009991
3232.237,0.00099972
3235.296,0.0010001
3238.290,0.0010009
3241.290,0.001003
3244.290,0.0010044
3247.292,0.0010055
3250.294,0.0010065
3253.290,0.0010074
3256.290,0.0010076
3259.334,0.0010084
3262.605,0.0010087
3265.601,0.0010093
3268.599,0.0010093
3271.597,0.0010097
3274.599,0.0010099
3277.601,0.0010095
3280.596,0.0010099
3283.607,0.0010104
3286.936,0.0010094
3289.935,0.0010095
3292.943,0.0010097
3295.948,0.0010097
3298.911,0.0010097
3301.942,0.0010097
3304.948,0.0010095
3308.293,0.0010094
3311.270,0.0010093
3314.267,0.001009
3317.270,0.0010092
3320.264,0.0010089
3323.269,0.0010088
3326.264,0.0010105
3329.269,0.0010113
3332.234,0.0010124
3335.256,0.001012
3338.258,0.0010126
3341.258,0.0010126
3344.330,0.0010126
3347.604,0.0010127
3350.576,0.0010124
3353.600,0.0010127
3356.607,0.0010122
3359.611,0.0010122
3362.606,0.0010125
3365.574,0.0010122
3368.576,0.0010125
3371.584,0.0010125
3374.606,0.0010126
3377.580,0.0010124
3380.580,0.0010122
3383.583,0.001012
3386.612,0.0010119
3389.609,0.0010117
3392.607,0.0010116
3395.585,0.0010113
3398.580,0.0010111
3401.606,0.0010106
3404.922,0.0010108
3407.919,0.0010104
3410.924,0.0010101
3413.925,0.0010099
3416.882,0.0010097
3419.919,0.0010097
3423.273,0.0010092
3426.264,0.0010092
3429.266,0.0010104
3432.229,0.0010108
3435.269,0.0010114
3438.237,0.0010117
3441.269,0.0010121
3444.265,0.0010122
3447.259,0.0010124
3450.261,0.0010122
3453.263,0.0010122
3456.260,0.0010124
3459.241,0.0010124
3462.265,0.0010119
3465.548,0.0010119
3468.580,0.0010117
3471.569,0.001012
3474.576,0.0010119
3477.577,0.0010116
3480.573,0.0010115
3483.578,0.0010115
3486.581,0.0010109
3489.577,0.0010111
3492.574,0.0010109
3495.574,0.0010106
3498.575,0.0010108
3501.574,0.0010109
3504.574,0.0010111
3507.581,0.0010106
3510.574,0.0010108
3513.540,0.0010109
3516.602,0.0010104
3519.913,0.0010101
3522.889,0.0010105
3526.233,0.00101
3529.201,0.00101
3532.216,0.0010103
3535.233,0.00101
3538.234,0.0010095
3541.236,0.00101
3544.232,0.0010104
3547.241,0.0010116
3550.235,0.0010127
3553.237,0.0010132
3556.234,0.0010136
3559.233,0.0010137
3562.238,0.0010138
3565.233,0.0010142
3568.232,0.001014
3571.241,0.0010137
3574.233,0.001014
3577.233,0.0010137
3580.238,0.0010136
3583.231,0.0010138
3586.553,0.0010132
3589.554,0.0010131
3592.548,0.0010128
3595.569,0.0010126
3598.548,0.0010127
3601.548,0.0010128
3604.553,0.0010126
3607.580,0.0010121
3610.553,0.0010127
3613.557,0.0010121
3616.551,0.001012
3619.558,0.0010119
3622.557,0.0010115
3625.556,0.0010111
3628.553,0.0010113
3631.552,0.0010113
3634.549,0.0010113
3637.544,0.0010109
3640.543,0.0010113
3643.561,0.0010126
3646.889,0.0010133
3649.880,0.001014
3652.850,0.0010147
3655.891,0.0010151
3658.891,0.0010151
3661.895,0.0010149
3664.894,0.0010151
3667.839,0.0010149
3670.891,0.0010147
3673.897,0.0010152
3676.891,0.0010153
3679.891,0.0010152
3682.885,0.0010151
3685.865,0.0010147
3688.890,0.0010142
3691.870,0.0010148
3694.893,0.0010147
3697.864,0.0010146
3700.863,0.0010146
3703.865,0.0010138
3706.892,0.0010143
3709.896,0.0010141
3712.864,0.001014
3715.869,0.0010141
3718.858,0.0010137
3721.865,0.0010136
3724.864,0.0010137
3727.870,0.0010137
3730.867,0.0010133
3733.863,0.0010131
3736.863,0.0010135
3739.870,0.0010131
3742.864,0.0010137
3745.864,0.0010135
3748.834,0.0010137
3751.865,0.0010136
3754.868,0.0010131
3757.865,0.0010131
3760.865,0.0010131
3763.870,0.0010135
3766.866,0.0010142
3769.864,0.0010154
3772.865,0.0010154
3775.849,0.0010158
3778.831,0.0010163
3781.865,0.0010164
3784.863,0.0010164
3787.873,0.0010162
3790.864,0.001016
3793.864,0.0010157
3796.866,0.0010155
3799.858,0.0010153
3802.865,0.0010149
3805.871,0.0010148
3808.894,0.0010146
3812.186,0.0010146
3815.211,0.0010143
3818.526,0.0010141
3821.526,0.0010141
3824.851,0.0010138
3828.186,0.0010143
3831.186,0.0010143
3834.185,0.001014
3837.185,0.001014
3840.185,0.0010143
3843.193,0.0010147
3846.187,0.0010146
3849.205,0.0010142
3852.532,0.0010141
3855.529,0.0010142
3858.527,0.0010148
3861.532,0.0010163
3864.533,0.0010181
3867.506,0.0010186
3870.527,0.00102
3873.493,0.0010198
3876.527,0.0010205
3879.529,0.0010205
3882.536,0.0010206
3885.840,0.0010206
3888.808,0.0010207
3891.846,0.0010207
3894.839,0.0010205
3897.844,0.0010203
3900.841,0.0010205
3903.806,0.00102
3906.840,0.00102
3909.842,0.0010197
3912.841,0.0010195
3915.817,0.0010192
3918.808,0.0010187
3921.842,0.0010185
3924.839,0.0010181
3927.839,0.0010181
3930.839,0.0010178
3933.839,0.0010174
3936.838,0.0010174
3939.844,0.0010175
3942.839,0.0010174
3946.185,0.0010173
3949.193,0.0010171
3952.186,0.0010175
3955.165,0.0010173
3958.185,0.0010171
3961.186,0.0010178
3964.189,0.0010175
3967.175,0.0010178
3970.189,0.0010174
3973.155,0.0010174
3976.157,0.0010174
3979.111,0.0010173
3982.148,0.0010175
3985.154,0.0010189
3988.162,0.0010195
3991.153,0.0010205
3994.155,0.0010207
3997.152,0.0010213
4000.157,0.0010218
4003.165,0.0010217
4006.153,0.0010217
4009.158,0.0010218
4012.128,0.0010216
4015.127,0.0010218
4018.131,0.001022
4021.126,0.0010219
4024.128,0.0010218
4027.135,0.0010218
4030.129,0.001022
4033.183,0.0010213
4036.128,0.0010216
4039.131,0.0010213
4042.127,0.0010211
4045.127,0.0010206
4048.129,0.0010206
4051.133,0.0010203
4054.128,0.0010206
4057.131,0.0010198
4060.141,0.0010196
4063.130,0.0010198
4066.130,0.0010197
4069.134,0.0010192
4072.129,0.0010192
4075.178,0.0010186
4078.123,0.0010181
4081.117,0.0010178
4084.104,0.0010169
4087.096,0.0010173
4090.141,0.0010182
4093.150,0.0010186
4096.139,0.0010187
4099.130,0.001019
4102.153,0.0010192
4105.134,0.0010189
4108.128,0.0010186
4111.126,0.0010178
4114.130,0.0010175
4117.138,0.001017
4120.129,0.0010162
4123.152,0.0010158
4126.445,0.0010152
4129.440,0.0010152
4132.439,0.0010147
4135.440,0.0010141
4138.441,0.0010137
4141.441,0.0010137
4144.440,0.0010136
4147.451,0.0010135
4150.470,0.0010131
4153.440,0.0010128
4156.440,0.0010125
4159.442,0.0010121
4162.440,0.0010121
4165.438,0.0010122
4168.442,0.0010114
4171.448,0.0010114
4174.470,0.0010113
4177.440,0.001011
4180.443,0.0010104
4183.438,0.0010106
4186.438,0.0010101
4189.442,0.0010103
4192.440,0.0010095
4195.485,0.0010108
4198.442,0.0010116
4201.441,0.0010127
4204.438,0.0010132
4207.440,0.0010137
4210.440,0.001014
4213.440,0.0010142
4216.440,0.0010144
4219.420,0.0010147
4222.440,0.0010148
4225.440,0.0010149
4228.443,0.0010148
4231.440,0.0010151
4234.477,0.0010149
4237.441,0.0010152
4240.415,0.0010147
4243.422,0.0010143
4246.442,0.0010144
4249.437,0.0010146
4252.439,0.0010142
4255.441,0.0010141
4258.416,0.0010138
4261.415,0.0010136
4264.413,0.0010136
4267.420,0.0010135
4270.415,0.0010131
4273.413,0.0010132
4276.443,0.0010127
4279.411,0.0010122
4282.421,0.0010121
4285.413,0.0010117
4288.440,0.0010114
4291.422,0.0010114
4294.413,0.0010106
4297.414,0.0010108
4300.444,0.0010105
4303.413,0.00101
4306.437,0.0010098
4309.417,0.0010109
4312.412,0.0010114
4315.433,0.0010122
4318.416,0.0010125
4321.413,0.0010126
4324.413,0.0010128
4327.412,0.0010132
4330.416,0.001013
4333.412,0.0010132
4336.414,0.0010132
4339.421,0.0010131
4342.413,0.0010132
4345.413,0.0010136
4348.419,0.0010133
4351.415,0.0010138
4354.414,0.0010135
4357.419,0.0010137
4360.415,0.0010136
4363.435,0.0010138
4366.758,0.0010138
4369.755,0.0010138
4372.754,0.0010138
4375.754,0.0010137
4378.728,0.0010137
4381.758,0.0010136
4385.075,0.0010133
4388.075,0.001013
4391.077,0.0010128
4394.075,0.0010127
4397.075,0.0010122
4400.048,0.00086254
4403.084,0.0006947
4406.075,0.00056869
4409.051,0.00046882
4412.051,0.00038833
4415.049,0.00032244
4418.049,0.00026882
4421.049,0.00022502
4424.209,0.00018821
4427.398,0.00015545
4430.387,0.00013128
4433.412,0.00011202
4436.389,9.5702E-05
4439.390,8.2083E-05
4444.044,6.5887E-05
4447.044,5.8034E-05
4450.042,5.1163E-05
4453.048,4.5642E-05
4456.050,4.0857E-05
4459.057,3.7176E-05
4462.050,3.3986E-05
4465.081,3.1164E-05
4468.048,2.9201E-05
4471.048,2.7483E-05
4474.053,2.6011E-05
4477.052,2.4539E-05
4480.045,2.3312E-05
4483.057,2.2453E-05
4486.055,2.1839E-05
4489.056,2.0858E-05
4492.087,2.0244E-05
4495.051,1.9999E-05
4498.050,1.9385E-05
4501.077,1.9263E-05
4504.051,1.8772E-05
4507.047,1.8649E-05
4510.039,1.8404E-05
4513.031,1.8281E-05
4516.021,1.8159E-05
4519.018,1.779E-05
4522.058,1.7545E-05
4525.052,1.7422E-05
4528.051,1.7668E-05
4531.053,1.7545E-05
4534.052,1.7422E-05
4537.051,1.7054E-05
4540.063,1.6932E-05
4543.050,1.6932E-05
4546.062,1.73E-05
4549.057,1.7054E-05
4552.049,1.6932E-05
4555.056,1.6932E-05
4558.049,1.6686E-05
4561.049,1.6809E-05
4564.051,1.6932E-05
4567.049,1.6441E-05
4570.049,1.6441E-05
4573.050,1.6564E-05
4576.016,1.6441E-05
4579.054,1.6318E-05
4582.041,1.6441E-05
4585.051,1.6318E-05
4588.029,1.6318E-05
4591.025,1.6195E-05
4594.023,1.6195E-05
4597.023,1.6073E-05
4600.025,1.6195E-05
4603.023,1.6195E-05
4606.023,1.6195E-05
4609.024,1.6318E-05
4612.023,1.6318E-05
4615.021,1.6195E-05
4618.026,1.6318E-05
4621.023,1.5827E-05
4624.023,1.595E-05
4627.025,1.595E-05
4630.023,1.595E-05
4633.021,1.5827E-05
4636.025,1.6073E-05
4639.022,1.595E-05
4642.023,1.595E-05
4645.023,1.5827E-05
4648.026,1.6195E-05
4651.027,1.5827E-05
4654.023,1.6195E-05
4657.022,1.595E-05
4660.023,1.6073E-05
4663.023,1.5705E-05
4666.024,1.5582E-05
4669.024,1.6073E-05
4672.023,1.595E-05
4675.025,1.5705E-05
4678.023,1.5705E-05
4681.023,1.5827E-05
4684.029,1.5827E-05
4687.024,1.595E-05
4690.026,1.5827E-05
4693.023,1.6073E-05
4696.026,1.5459E-05
4699.022,1.595E-05
4702.022,1.5582E-05
4705.022,1.5582E-05
4808.382,1.4965E-05
4811.343,1.499E-05
4814.362,1.5002E-05
4817.335,1.4953E-05
4820.335,1.4916E-05
4823.360,1.494E-05
4826.338,1.4916E-05
4829.361,1.494E-05
4832.397,1.4916E-05
4835.341,1.4953E-05
4838.335,1.4879E-05
4841.361,1.4916E-05
4844.368,1.4891E-05
4847.676,1.4854E-05
4850.676,1.4903E-05
4853.680,1.4866E-05
4856.676,1.4866E-05
4859.683,1.4891E-05
4862.677,1.4891E-05
4865.705,1.4854E-05
4869.025,1.4903E-05
4872.028,1.4891E-05
4875.032,1.4891E-05
4878.336,1.4903E-05
4881.335,1.4928E-05
4884.339,1.4916E-05
4887.337,1.4916E-05
4890.335,1.4903E-05
4893.334,1.4903E-05
4896.337,1.4903E-05
4899.338,1.4891E-05
4902.359,1.4903E-05
4905.337,1.4953E-05
4908.338,1.4879E-05
4911.334,1.4903E-05
4914.338,1.4953E-05
4917.339,1.4879E-05
4920.334,1.4903E-05
4923.341,1.494E-05
4926.336,1.4928E-05
4929.335,1.4903E-05
4932.355,1.4879E-05
4935.337,1.4903E-05
4938.333,1.494E-05
4941.335,1.4916E-05
4944.369,1.4891E-05
4947.339,1.4916E-05
4950.335,1.4903E-05
4953.337,1.4928E-05
4956.335,1.4891E-05
4959.335,1.4891E-05
4962.334,1.4928E-05
4965.366,1.4903E-05
4968.334,1.4891E-05
4971.314,1.4903E-05
4974.310,1.4903E-05
4977.335,1.4916E-05
4980.335,1.4903E-05
4983.336,1.4903E-05
4986.333,1.4928E-05
4989.311,1.4928E-05
4992.337,1.4928E-05
4995.313,1.4916E-05
4998.326,1.4891E-05
5001.338,1.4916E-05
5004.310,1.4965E-05
5007.343,1.4965E-05
5010.309,1.4953E-05
5013.308,1.4928E-05
5016.307,1.4965E-05
5019.313,1.4953E-05
5022.308,1.499E-05
5025.309,1.4965E-05
5028.337,1.4965E-05
5031.305,1.4978E-05
5034.318,1.4978E-05
5037.626,1.499E-05
5040.618,1.4953E-05
5043.662,1.5002E-05
5046.654,1.4978E-05
5049.715,1.4965E-05
5052.651,1.4978E-05
5055.652,1.499E-05
5058.650,1.4953E-05
5061.642,1.4965E-05
5064.649,1.4965E-05
5067.634,1.4965E-05
5070.649,1.4953E-05
5073.649,1.5002E-05
5076.654,1.4978E-05
5079.651,1.4953E-05
5082.647,1.4965E-05
5085.651,1.4928E-05
5088.649,1.4916E-05
5091.662,1.4928E-05
5094.623,1.494E-05
5097.649,1.4916E-05
5100.650,1.4903E-05
5103.652,1.4916E-05
5106.645,1.4916E-05
5208.298,1.4788E-05
5211.291,1.4801E-05
5214.286,1.4815E-05
5217.288,1.4818E-05
5220.282,1.4823E-05
5223.282,1.4841E-05
5226.283,1.4853E-05
5229.282,1.4854E-05
5232.369,1.487E-05
5235.632,1.4889E-05
5238.626,1.4886E-05
5241.625,1.4899E-05
5244.627,1.4911E-05
5247.625,1.4911E-05
5250.616,1.4913E-05
5253.610,1.4926E-05
5256.601,1.4924E-05
5259.635,1.4917E-05
5262.593,1.4924E-05
5265.636,1.4921E-05
5268.625,1.4907E-05
5271.625,1.4903E-05
5274.604,1.4907E-05
5277.679,1.4886E-05
5281.024,1.4879E-05
5283.940,1.488E-05
5286.935,1.4863E-05
5289.975,1.4843E-05
5293.024,1.4847E-05
5296.022,1.4836E-05
5299.023,1.4816E-05
5301.937,1.4815E-05
5304.935,1.4821E-05
5307.942,1.4805E-05
5310.938,1.4805E-05
5313.935,1.4814E-05
5316.934,1.4811E-05
5319.934,1.481E-05
5322.935,1.4822E-05
5325.934,1.483E-05
5328.939,1.4826E-05
5331.942,1.4837E-05
5334.935,1.485E-05
5337.937,1.485E-05
5340.934,1.486E-05
5343.935,1.488E-05
5346.937,1.488E-05
5349.968,1.4885E-05
5352.937,1.49E-05
5355.943,1.4906E-05
5358.938,1.4903E-05
5361.965,1.4912E-05
5364.961,1.4921E-05
5367.936,1.4918E-05
5370.935,1.4916E-05
5373.934,1.4926E-05
5376.938,1.4916E-05
5379.941,1.491E-05
5382.933,1.4913E-05
5385.937,1.4903E-05
5388.934,1.4886E-05
5391.935,1.4883E-05
5394.938,1.4881E-05
5397.936,1.4865E-05
5400.936,1.4857E-05
5403.941,1.4931E-05
5406.938,1.5824E-05
5409.908,2.3603E-05
5412.911,3.06E-05
5415.907,3.6232E-05
5418.909,4.0821E-05
5421.914,4.459E-05
5424.909,4.7679E-05
5427.914,5.0219E-05
5430.912,5.2302E-05
5433.883,5.4009E-05
5637.249,0.0010246
5640.226,0.0010229
5643.209,0.0010211
5646.201,0.0010195
5649.202,0.0010189
5652.199,0.0010175
5655.197,0.0010165
5658.199,0.0010158
5661.203,0.0010151
5664.206,0.0010152
5667.209,0.0010157
5670.204,0.0010158
5673.234,0.001016
5676.207,0.0010158
5679.204,0.0010154
5682.244,0.0010152
5685.205,0.0010154
5688.203,0.0010147
5691.209,0.0010147
5694.233,0.0010143
5697.232,0.0010144
5700.204,0.0010138
5703.204,0.0010137
5706.204,0.0010131
5709.204,0.0010125
5712.206,0.0010127
5715.208,0.0010119
5718.202,0.0010115
5721.199,0.001011
5724.207,0.0010111
5727.204,0.0010103
5730.204,0.0010103
5733.204,0.0010097
5736.233,0.0010106
5739.208,0.0010117
5742.207,0.0010122
5745.204,0.0010125
5748.198,0.0010127
5751.207,0.0010124
5754.204,0.0010124
5757.234,0.0010124
5760.206,0.0010124
5763.182,0.0010119
5766.202,0.001012
5769.204,0.0010117
5772.206,0.0010116
5775.204,0.0010117
5778.203,0.0010117
5781.204,0.0010111
5784.204,0.0010115
5787.183,0.0010113
5790.207,0.0010111
5793.177,0.0010109
5796.180,0.0010105
5799.205,0.0010109
5802.205,0.0010105
5805.204,0.00101
5808.206,0.0010098
5811.183,0.00101
5814.180,0.0010099
5817.179,0.0010094
5820.188,0.0010087
5823.215,0.001009
5826.205,0.0010092
5829.178,0.0010097
5832.147,0.0010099
5835.184,0.0010106
5838.173,0.0010103
5841.166,0.0010106
5844.163,0.0010106
5847.149,0.0010105
5850.163,0.0010108
5853.185,0.001011
5856.182,0.0010108
5859.186,0.0010103
5862.182,0.00101
5865.191,0.0010104
5868.181,0.00101
5871.178,0.0010104
5874.180,0.0010103
5877.176,0.0010104
5880.177,0.0010098
5883.183,0.0010097
5886.177,0.0010099
5889.180,0.0010095
5892.209,0.0010095
5895.178,0.0010092
5898.153,0.0010093
5901.180,0.0010086
5904.176,0.0010087
5907.184,0.0010083
5910.180,0.0010082
5913.177,0.0010078
5916.176,0.0010087
5919.177,0.0010095
5922.180,0.0010101
5925.177,0.0010108
5928.177,0.0010111
5931.183,0.001011
5934.179,0.0010116
5937.518,0.0010111
5940.519,0.0010114
5943.523,0.0010113
5946.519,0.0010111
5949.519,0.0010113
5952.519,0.001011
5955.496,0.0010109
5958.494,0.0010108
5961.493,0.0010104
5964.527,0.0010101
5967.493,0.0010098
5970.492,0.0010097
5973.518,0.0010092
5976.495,0.0010094
5979.497,0.0010092
5982.492,0.0010089
5985.530,0.0010086
5988.492,0.0010087
5991.492,0.0010081
5994.495,0.0010078
5997.493,0.0010076
6000.497,0.0010074
6003.536,0.0010072
6006.542,0.0010071
6009.492,0.001007
6012.495,0.0010086
6015.534,0.0010094
6018.522,0.0010104
6021.500,0.0010109
6024.494,0.0010115
6027.529,0.0010119
6030.492,0.0010116
6033.518,0.0010119
6036.492,0.0010121
6039.493,0.0010116
6042.495,0.0010119
6045.493,0.0010115
6048.506,0.0010113
6051.498,0.0010113
6054.492,0.0010114
6057.492,0.0010109
6060.494,0.0010108
6063.491,0.0010105
6066.543,0.00101
6069.830,0.0010099
6072.831,0.0010099
6075.835,0.0010095
6078.830,0.0010089
6081.831,0.0010089
6084.805,0.0010087
6087.830,0.0010083
6090.833,0.0010079
6093.830,0.0010083
6096.808,0.0010074
6099.836,0.0010073
6102.831,0.001007
6105.830,0.0010068
6108.829,0.0010076
6111.805,0.0010086
6114.802,0.0010094
6118.151,0.0010099
6121.151,0.0010101
6124.155,0.0010106
6127.183,0.0010106
6130.151,0.0010106
6133.123,0.0010105
6136.153,0.0010104
6139.135,0.0010104
6142.150,0.0010105
6145.151,0.0010103
6148.166,0.0010099
6151.492,0.0010095
6154.463,0.0010093
6157.462,0.0010092
6160.466,0.0010089
6163.471,0.0010084
6166.463,0.0010081
6169.470,0.0010082
6172.451,0.0010081
6175.486,0.0010074
6178.807,0.0010077
6181.787,0.0010093
6185.155,0.0010103
6188.151,0.0010101
6191.125,0.0010111
6194.153,0.0010117
6197.126,0.0010117
6200.131,0.0010117
6203.133,0.0010117
6206.127,0.0010119
6209.125,0.0010119
6212.126,0.0010122
6215.100,0.001012
6218.128,0.0010121
6221.127,0.001012
6224.128,0.0010117
6227.132,0.0010116
6230.126,0.0010111
6233.168,0.0010113
6236.149,0.0010105
6239.454,0.0010106
6242.455,0.0010104
6245.465,0.0010103
6248.462,0.0010101
6251.474,0.0010097
6254.463,0.0010094
6257.463,0.0010094
6260.464,0.0010088
6263.466,0.0010093
6266.466,0.0010087
6269.464,0.0010086
6272.466,0.0010086
6275.448,0.0010082
6278.464,0.0010093
6281.429,0.0010104
6284.806,0.0010113
6287.781,0.0010113
6290.779,0.0010115
6293.779,0.0010116
6296.857,0.0010113
6299.783,0.0010113
6302.780,0.001011
6305.778,0.0010109
6308.782,0.001011
6311.779,0.0010113
6314.781,0.0010108
6318.127,0.0010108
6321.102,0.0010103
6324.126,0.0010103
6327.128,0.0010108
6330.100,0.0010108
6333.103,0.0010101
6336.127,0.0010104
6339.139,0.0010101
6342.101,0.0010101
6345.129,0.0010105
6348.099,0.00101
6351.103,0.0010098
6354.098,0.0010095
6357.125,0.0010095
6360.134,0.0010093
6363.104,0.001009
6366.098,0.001009
6369.102,0.0010088
6372.100,0.0010088
6375.097,0.0010084
6378.099,0.0010086
6381.137,0.0010077
6384.099,0.0010076
6387.106,0.001007
6390.104,0.001007
6393.100,0.001007
6396.099,0.0010074
6399.100,0.0010083
6402.131,0.0010094
6405.099,0.0010099
6408.103,0.0010104
6411.104,0.0010104
6414.099,0.0010104
6417.135,0.0010104
6420.099,0.0010105
6423.129,0.0010104
6426.100,0.0010103
6429.102,0.00101
6432.098,0.00101
6435.106,0.00101
6438.099,0.0010098
6442.751,0.0010094
6445.775,0.0010093
6448.771,0.0010089
6451.753,0.001009
6454.777,0.0010088
6457.773,0.0010088
6460.774,0.0010087
6463.812,0.0010084
6466.765,0.0010084
6469.801,0.0010083
6472.742,0.0010083
6475.761,0.0010082
6479.064,0.0010076
6482.156,0.0010076
6485.075,0.0010072
6488.105,0.001007
6491.079,0.0010066
6494.099,0.0010087
6497.101,0.0010094
6500.104,0.0010099
6503.075,0.0010104
6506.105,0.0010106
6509.102,0.0010111
6512.073,0.001011
6515.070,0.0010108
6518.073,0.0010108
6521.073,0.0010106
6524.073,0.0010103
6527.128,0.0010106
6530.073,0.0010101
6533.102,0.0010099
6536.073,0.0010098
6539.104,0.0010094
6542.075,0.0010093
6545.074,0.0010089
6548.068,0.0010089
6551.075,0.0010089
6554.073,0.0010089
6557.071,0.0010087
6560.073,0.0010086
6563.077,0.0010082
6566.071,0.0010077
6569.103,0.0010077
6572.073,0.0010073
6575.073,0.0010074
6578.071,0.0010076
6581.075,0.0010073
6584.074,0.0010077
6587.078,0.0010076
6590.105,0.0010074
6593.073,0.0010072
6596.076,0.0010067
6599.074,0.001007
6602.073,0.0010082
6605.075,0.0010093
6608.074,0.0010098
6611.050,0.0010103
6614.075,0.0010103
6617.082,0.0010103
6620.110,0.0010101
6623.074,0.0010103
6626.064,0.0010099
6629.089,0.0010103
6632.079,0.0010104
6635.044,0.0010099
6638.044,0.0010099
6641.040,0.0010094
6644.078,0.0010094
6647.078,0.0010093
6650.075,0.0010088
6653.073,0.0010083
6656.073,0.0010084
6659.052,0.0010078
6662.073,0.0010077
6665.063,0.0010076
6668.076,0.0010072
6671.046,0.0010074
6674.044,0.0010076
6677.075,0.0010068
6680.047,0.0010067
6683.056,0.0010067
6686.047,0.0010065
6689.067,0.0010066
6692.049,0.0010066
6695.047,0.0010063
6698.075,0.0010063
6701.384,0.0010056
6704.387,0.0010054
6707.392,0.001005
6710.385,0.001006
6713.385,0.001007
6716.385,0.0010081
6719.385,0.0010083
6722.392,0.0010086
6725.384,0.0010086
6728.384,0.0010089
6731.401,0.001009
6734.733,0.0010094
6737.727,0.0010093
6740.730,0.0010092
6743.728,0.0010092
6746.727,0.001009
6749.730,0.0010093
6752.730,0.0010088
6755.719,0.0010089
6758.712,0.0010087
6761.703,0.0010081
6764.750,0.0010078
6768.047,0.0010077
6771.052,0.0010079
6774.049,0.0010071
6777.048,0.0010073
6780.046,0.001007
6783.045,0.001007
6786.046,0.0010071
6789.047,0.0010066
6792.047,0.0010062
6795.053,0.0010059
6798.037,0.0010061
6801.047,0.0010051
6804.049,0.0010051
6807.046,0.001005
6810.047,0.0010049
6813.049,0.0010044
6816.079,0.0010045
6819.084,0.001004
6822.083,0.0010052
6825.083,0.001006
6828.053,0.0010068
6831.077,0.0010078
6834.077,0.0010076
6837.358,0.0010084
6840.391,0.0010086
6843.395,0.0010086
6846.387,0.0010087
6849.380,0.0010086
6852.387,0.0010087
6855.391,0.0010087
6858.399,0.0010083
6861.393,0.0010084
6864.390,0.0010079
6867.398,0.0010079
6870.395,0.0010077
6873.390,0.0010079
6876.392,0.0010081
6879.393,0.0010077
6882.410,0.0010082
6885.392,0.0010078
6888.390,0.0010076
6891.387,0.0010077
6894.725,0.0010077
6898.004,0.0010073
6901.047,0.0010072
6904.060,0.0010068
6907.054,0.0010072
6910.052,0.0010065
6913.051,0.0010066
6916.051,0.0010062
6919.052,0.0010063
6922.054,0.001006
6925.056,0.0010056
6928.062,0.0010055
6931.021,0.0010055
6934.021,0.0010055
6937.020,0.0010049
6940.020,0.0010049
6943.021,0.0010044
6946.020,0.001005
6949.021,0.0010061
6952.020,0.001007
6955.021,0.0010073
6958.048,0.0010079
6961.020,0.0010078
6964.016,0.0010082
6967.015,0.0010079
6970.017,0.0010084
6973.015,0.0010086
6976.016,0.0010086
6979.015,0.0010082
6982.019,0.0010083
6985.015,0.0010083
6988.022,0.0010083
6991.024,0.0010082
6994.019,0.0010079
6997.022,0.0010081
7000.021,0.0010076
7003.022,0.0010077
7006.024,0.0010073
7009.020,0.0010077
7012.020,0.0010076
7015.027,0.001007
7018.333,0.0010071
7021.332,0.001007
7024.336,0.0010068
7027.338,0.0010066
7030.332,0.0010063
7033.334,0.0010062
7036.331,0.0010059
7039.332,0.0010057
7042.335,0.0010054
7045.333,0.0010052
7048.322,0.0010049
7051.338,0.0010044
7054.333,0.0010045
7057.333,0.0010041
7060.334,0.0010057
7063.334,0.0010067
7066.334,0.0010076
7069.332,0.0010082
7072.336,0.0010079
7075.337,0.0010084
7078.358,0.0010086
7081.327,0.0010088
7084.334,0.0010083
7087.332,0.0010081
7090.335,0.0010077
7093.332,0.0010078
7096.331,0.0010077
7099.339,0.0010074
7102.332,0.0010078
7105.332,0.0010079
7108.335,0.0010078
7111.332,0.0010076
7114.333,0.0010077
7117.333,0.0010076
7120.336,0.0010078
7123.313,0.0010073
7126.333,0.0010073
7129.334,0.0010071
7132.330,0.0010073
7135.332,0.0010067
7138.679,0.0010063
7141.673,0.0010056
7144.651,0.0010059
7147.659,0.0010057
7150.674,0.0010059
7153.649,0.0010051
7156.647,0.0010051
7159.647,0.0010046
7162.680,0.0010046
7165.647,0.0010044
7168.673,0.001004
7171.655,0.001004
7174.650,0.0010034
7177.677,0.0010033
7180.647,0.0010045
7183.650,0.0010055
7186.649,0.0010056
7189.648,0.0010057
7192.649,0.0010057
7195.659,0.0010056
7198.650,0.0010051
7201.649,0.0010051
7204.670,0.0010047
7208.019,0.0010046
7211.020,0.0010045
7214.022,0.0010041
7217.020,0.001004
7220.020,0.0010035
7223.023,0.0010027
7226.021,0.0010025
7229.021,0.0010022
7232.031,0.0010023
7235.024,0.0010022
7238.020,0.001002
7241.020,0.0010016
7244.022,0.0010016
7247.020,0.0010017
7250.020,0.0010011
7253.022,0.0010009
7256.020,0.0010008
7259.311,0.0010008
7262.306,0.0010006
7265.308,0.0010008
7268.306,0.0010007
7271.306,0.0010006
7274.311,0.0010005
7277.307,0.0010001
7280.308,0.0010007
7283.312,0.0010019
7286.310,0.0010023
7289.306,0.0010027
7292.306,0.0010029
7295.307,0.0010035
7298.306,0.0010035
7301.306,0.0010038
7304.308,0.0010036
7307.313,0.0010038
7310.417,0.001004
7313.680,0.0010043
7316.730,0.001004
7320.053,0.0010043
7323.347,0.0010045
7326.334,0.0010043
7329.390,0.0010046
7332.676,0.0010043
7335.641,0.001004
7338.675,0.0010039
7341.648,0.0010035
7344.649,0.0010034
7347.658,0.0010029
7350.650,0.0010028
7353.648,0.0010027
7356.654,0.0010024
7359.648,0.0010022
7362.648,0.0010022
7365.648,0.001002
7368.651,0.0010014
7371.653,0.0010014
7374.648,0.0010014
7377.672,0.0010012
7380.648,0.0010009
7383.648,0.0010007
7386.651,0.0010002
7389.622,0.00099996
7392.593,0.00099959
7395.601,0.00099972
7398.624,0.00099935
7401.628,0.00099935
7404.599,0.00099959
7407.622,0.00099935
7410.631,0.00092843
7413.626,0.00074157
7416.624,0.0006055
7419.632,0.00049802
7422.624,0.00041164
7425.622,0.00034207
7428.622,0.00028428
7431.646,0.00023729
7434.623,0.00019901
7437.962,0.00016367
7440.962,0.00013828
7443.965,0.00011717
7446.960,9.9996E-05
7449.960,8.6009E-05
7452.960,7.4107E-05
7455.954,6.4537E-05
7458.933,5.6562E-05
7461.933,4.9937E-05
7464.961,4.4661E-05
7467.963,3.9876E-05
7471.257,3.6195E-05
7474.286,3.2759E-05
7477.285,3.0305E-05
7480.280,2.822E-05
7483.291,2.6502E-05
7486.283,2.5029E-05
7489.284,2.3925E-05
7492.280,2.2698E-05
7495.284,2.1717E-05
7498.319,2.0981E-05
7501.281,2.0735E-05
7504.282,1.9876E-05
7507.285,1.9631E-05
7510.281,1.914E-05
7513.285,1.9017E-05
7516.282,1.8281E-05
7519.281,1.8159E-05
7522.285,1.8281E-05
7525.285,1.7913E-05
7528.281,1.7422E-05
7531.257,1.73E-05
7534.281,1.73E-05
7537.281,1.6932E-05
7540.281,1.6932E-05
7543.284,1.7054E-05
7546.280,1.6686E-05
7549.279,1.6441E-05
7552.282,1.6686E-05
7555.259,1.6441E-05
7558.309,1.6318E-05
7561.255,1.6441E-05
7564.296,1.6073E-05
7567.279,1.6318E-05
7570.255,1.595E-05
7573.280,1.595E-05
7576.280,1.5827E-05
7579.259,1.6073E-05
7582.254,1.595E-05
7585.247,1.5705E-05
7588.280,1.5705E-05
7591.255,1.5582E-05
7594.254,1.595E-05
7597.285,1.5827E-05
7600.283,1.595E-05
7603.269,1.5582E-05
7606.266,1.5705E-05
7609.262,1.5582E-05
7612.226,1.5582E-05
7615.257,1.5827E-05
7618.286,1.5337E-05
7621.260,1.5705E-05
7624.259,1.5582E-05
7627.268,1.5582E-05
7630.231,1.5705E-05
7633.233,1.5827E-05
7636.232,1.5459E-05
7639.232,1.5582E-05
7642.233,1.5827E-05
7645.229,1.5459E-05
7648.228,1.5827E-05
7651.237,1.5582E-05
7654.229,1.5705E-05
7657.229,1.5582E-05
7660.230,1.5582E-05
7663.229,1.5459E-05
7666.227,1.5459E-05
7669.230,1.5459E-05
7672.253,1.5214E-05
7675.233,1.5582E-05
7678.254,1.5459E-05
7681.251,1.5459E-05
7684.228,1.5337E-05
7687.228,1.5459E-05
7690.252,1.5214E-05
7693.228,1.5459E-05
7696.254,1.4969E-05
7699.257,1.5214E-05
7702.228,1.5459E-05
7705.254,1.5214E-05
7708.230,1.5582E-05
7711.230,1.5582E-05
7714.204,1.5337E-05
7717.254,1.4846E-05
7819.896,1.4581E-05
7822.907,1.4618E-05
7825.883,1.4569E-05
7828.906,1.4569E-05
7831.905,1.4606E-05
7834.879,1.4618E-05
7837.881,1.4594E-05
7840.883,1.4581E-05
7843.885,1.4556E-05
7846.906,1.4606E-05
7849.885,1.4594E-05
7852.882,1.4631E-05
7855.880,1.4606E-05
7858.883,1.4606E-05
7861.882,1.4606E-05
7864.884,1.4594E-05
7867.888,1.4556E-05
7870.880,1.4544E-05
7873.882,1.4606E-05
7876.881,1.4556E-05
7879.881,1.4581E-05
7882.879,1.4594E-05
7885.881,1.4581E-05
7888.883,1.4581E-05
7891.885,1.4594E-05
7894.881,1.4581E-05
7897.905,1.4532E-05
7900.882,1.4569E-05
7903.883,1.4594E-05
7906.883,1.4581E-05
7909.882,1.4569E-05
7912.881,1.4556E-05
7915.910,1.4594E-05
7919.202,1.4556E-05
7922.204,1.4519E-05
7925.202,1.4556E-05
7928.199,1.4569E-05
7931.233,1.4519E-05
7934.202,1.4581E-05
7937.199,1.4569E-05
7940.202,1.4532E-05
7943.205,1.4544E-05
7946.201,1.4556E-05
7949.200,1.4556E-05
7952.202,1.4544E-05
7955.207,1.4544E-05
7958.201,1.4544E-05
7961.203,1.4519E-05
7964.201,1.4544E-05
7967.202,1.4494E-05
7970.204,1.4532E-05
7973.201,1.4519E-05
7976.201,1.4519E-05
7979.208,1.4507E-05
7982.202,1.4532E-05
7985.201,1.4569E-05
7988.206,1.4532E-05
7991.205,1.4519E-05
7994.201,1.4532E-05
7997.203,1.4581E-05
8000.203,1.4544E-05
8003.213,1.4556E-05
8006.202,1.4556E-05
8009.204,1.4532E-05
8012.203,1.4556E-05
8015.200,1.4581E-05
8018.204,1.4569E-05
8021.201,1.4569E-05
8024.199,1.4606E-05
8027.162,1.4594E-05
8030.202,1.4581E-05
8033.206,1.4581E-05
8036.177,1.4618E-05
8039.203,1.4556E-05
8042.203,1.4606E-05
8045.201,1.4594E-05
8048.188,1.4569E-05
8051.182,1.4569E-05
8054.201,1.4581E-05
8057.205,1.4594E-05
8060.167,1.4556E-05
8063.178,1.4556E-05
8066.176,1.4569E-05
8069.201,1.4556E-05
8072.178,1.4594E-05
8075.180,1.4569E-05
8078.177,1.4581E-05
8081.176,1.4569E-05
8084.175,1.4569E-05
8087.176,1.4544E-05
8090.175,1.4569E-05
8093.178,1.4556E-05
8096.175,1.4569E-05
8099.182,1.4569E-05
8102.176,1.4544E-05
8105.175,1.4556E-05
8108.176,1.4544E-05
8111.178,1.4643E-05
8114.174,1.4581E-05
8117.175,1.4556E-05
8219.849,1.4461E-05
8222.830,1.4469E-05
8225.828,1.4464E-05
8228.828,1.4454E-05
8231.821,1.4461E-05
8234.826,1.4465E-05
8237.823,1.4456E-05
8240.824,1.4462E-05
8243.830,1.4477E-05
8246.823,1.4466E-05
8249.823,1.4467E-05
8252.823,1.4481E-05
8255.858,1.448E-05
8258.824,1.4482E-05
8261.823,1.4493E-05
8264.862,1.4498E-05
8267.812,1.4493E-05
8270.822,1.4504E-05
8273.825,1.4518E-05
8276.856,1.4519E-05
8280.146,1.4526E-05
8283.149,1.454E-05
8286.157,1.454E-05
8289.147,1.454E-05
8292.144,1.4551E-05
8295.144,1.4556E-05
8298.192,1.455E-05
8301.136,1.4559E-05
8304.174,1.4563E-05
8307.149,1.4557E-05
8310.145,1.4555E-05
8313.144,1.4568E-05
8316.144,1.4562E-05
8319.144,1.4555E-05
8322.144,1.4562E-05
8325.144,1.4565E-05
8328.146,1.4551E-05
8331.152,1.4555E-05
8334.149,1.4555E-05
8337.144,1.4546E-05
8340.144,1.4541E-05
8343.146,1.4545E-05
8346.146,1.4539E-05
8349.202,1.453E-05
8352.485,1.4536E-05
8355.490,1.4534E-05
8358.485,1.4525E-05
8361.583,1.453E-05
8364.871,1.4534E-05
8368.144,1.4525E-05
8371.149,1.4528E-05
8374.144,1.4536E-05
8377.144,1.4528E-05
8380.142,1.4528E-05
8383.149,1.4539E-05
8386.125,1.4533E-05
8389.151,1.4524E-05
8392.150,1.4536E-05
8395.131,1.4535E-05
8398.150,1.4522E-05
8401.123,1.453E-05
8404.123,1.4533E-05
8407.149,1.4523E-05
8410.123,1.4522E-05
8413.149,1.4535E-05
8416.124,1.4533E-05
8419.128,1.4838E-05
8422.153,1.9259E-05
8425.097,2.719E-05
8428.132,3.3472E-05
8431.145,3.8563E-05
8434.097,4.2738E-05
8437.098,4.616E-05
8440.122,4.8967E-05
8443.103,5.1276E-05
8446.092,5.3173E-05
8650.788,0.0010133
8653.773,0.0010115
8656.745,0.0010097
8659.751,0.0010082
8662.745,0.0010073
8665.745,0.0010065
8668.831,0.0010051
8671.745,0.0010059
8674.745,0.0010062
8677.752,0.0010065
8680.759,0.0010066
8683.750,0.0010065
8686.745,0.0010059
8689.745,0.0010055
8692.745,0.0010052
8695.745,0.0010043
8698.747,0.0010038
8701.745,0.0010028
8704.744,0.0010024
8707.751,0.0010016
8710.743,0.0010011
8713.744,0.0010002
8716.721,0.00099972
8719.719,0.0009991
8722.721,0.00099874
8725.717,0.00099775
8728.719,0.00099775
8731.723,0.00099714
8734.719,0.00099714
8737.718,0.0009969
8740.717,0.00099653
8743.719,0.00099665
8746.718,0.00099604
8749.718,0.00099604
8752.721,0.00099616
8755.732,0.00099604
8758.721,0.00099555
8761.720,0.00099677
8764.691,0.00099726
8767.720,0.00099825
8770.722,0.00099825
8773.744,0.00099837
8776.715,0.00099837
8779.746,0.00099861
8783.045,0.00099825
8786.044,0.000998
8789.043,0.00099788
8792.044,0.00099714
8795.051,0.00099714
8798.043,0.00099702
8801.048,0.0009969
8804.045,0.00099665
8807.044,0.00099628
8810.045,0.00099579
8813.079,0.00099567
8816.045,0.0009953
8819.080,0.00099481
8822.047,0.00099493
8825.046,0.00099506
8828.044,0.00099432
8831.036,0.00099456
8834.044,0.00099604
8837.043,0.00099726
8840.075,0.00099788
8843.050,0.000998
8846.044,0.00099849
8849.045,0.00099861
8852.075,0.00099861
8855.045,0.00099812
8858.045,0.00099825
8861.079,0.00099812
8864.057,0.000998
8867.048,0.000998
8870.048,0.00099775
8873.046,0.00099751
8876.049,0.00099739
8879.020,0.00099726
8882.059,0.00099665
8885.045,0.0009964
8888.044,0.00099628
8891.019,0.00099604
8894.019,0.00099579
8897.043,0.00099555
8900.047,0.00099518
8903.018,0.00099518
8906.021,0.00099432
8909.019,0.00099407
8912.017,0.00099456
8915.019,0.00099518
8918.019,0.00099591
8921.019,0.00099653
8924.021,0.00099702
8927.019,0.00099665
8930.018,0.00099702
8933.018,0.00099714
8936.022,0.00099702
8939.018,0.00099702
8942.018,0.00099628
8945.020,0.0009964
8948.030,0.00099591
8951.044,0.00099567
8954.020,0.00099567
8957.018,0.00099481
8960.018,0.00099469
8963.020,0.00099407
8966.019,0.00099371
8969.018,0.00099334
8972.022,0.00099297
8975.023,0.0009926
8978.018,0.00099199
8981.046,0.00099162
8984.022,0.00099101
8987.018,0.00099039
8990.017,0.0009899
8993.019,0.00098966
8996.021,0.00098941
8999.017,0.00098917
9002.016,0.00099039
9005.018,0.00099088
9008.018,0.00099113
9011.021,0.00099174
9014.068,0.00099223
9017.021,0.00099223
9020.026,0.00099272
9023.021,0.0009926
9026.019,0.00099272
9029.020,0.00099272
9032.022,0.00099285
9035.020,0.00099285
9037.998,0.00099248
9041.030,0.00099248
9044.036,0.00099236
9046.994,0.00099248
9049.988,0.00099162
9052.985,0.00099174
9056.018,0.0009915
9059.022,0.00099137
9062.018,0.00099113
9065.019,0.00099076
9068.024,0.00099052
9071.019,0.00099039
9074.019,0.0009899
9077.019,0.00098953
9080.020,0.00098941
9083.018,0.00098929
9086.017,0.00098941
9089.020,0.00099002
9092.018,0.00099101
9095.018,0.00099125
9098.060,0.00099199
9101.018,0.00099199
9104.018,0.00099199
9107.021,0.00099211
9110.049,0.00099223
9113.018,0.00099174
9116.060,0.0009915
9119.330,0.00099162
9122.330,0.00099137
9125.335,0.0009915
9128.330,0.00099101
9131.359,0.00099137
9134.298,0.00099088
9137.330,0.00099064
9140.331,0.00099052
9143.333,0.00099076
9146.331,0.00099052
9149.361,0.00099015
9152.365,0.00099015
9155.335,0.00099039
9158.330,0.0009899
9161.332,0.00098978
9164.371,0.00098966
9167.330,0.00098929
9170.330,0.00098941
9173.367,0.00098904
9176.331,0.00098904
9179.337,0.00098818
9182.330,0.0009899
9185.330,0.00099039
9188.330,0.00099125
9191.332,0.0009915
9194.365,0.00099187
9197.322,0.00099162
9200.333,0.0009915
9203.335,0.00099125
9206.306,0.00099088
9209.304,0.00099101
9212.331,0.00099052
9215.328,0.00099027
9218.330,0.00099015
9221.334,0.00099015
9224.332,0.00099002
9227.337,0.00098929
9230.304,0.00098904
9233.331,0.00098904
9236.331,0.00098892
9239.332,0.0009888
9242.330,0.00098855
9245.321,0.00098867
9248.331,0.00098892
9251.335,0.0009888
9254.330,0.00098806
9257.304,0.00098782
9260.302,0.00098806
9263.306,0.00098782
9266.303,0.00098806
9269.304,0.00098769
9272.304,0.00098769
9275.307,0.00098769
9278.305,0.00098745
9281.271,0.0009872
9284.300,0.00098696
9287.309,0.00098647
9290.315,0.00098622
9293.309,0.00098671
9296.305,0.00098757
9299.360,0.00098867
9302.311,0.00098904
9305.303,0.00098929
9308.293,0.00098941
9311.285,0.00098978
9314.283,0.00098953
9317.276,0.00098929
9320.315,0.00098917
9323.315,0.00098892
9326.309,0.0009888
9329.303,0.00098855
9332.297,0.00098818
9335.304,0.00098794
9338.277,0.00098782
9341.306,0.00098745
9344.304,0.00098769
9347.298,0.00098696
9350.307,0.00098708
9353.304,0.00098708
9356.310,0.00098659
9359.341,0.00098696
9362.307,0.00098696
9365.302,0.00098659
9368.310,0.00098683
9371.309,0.00098659
9374.278,0.00098647
9377.304,0.00098634
9380.333,0.00098659
9383.278,0.00098598
9386.302,0.00098598
9389.306,0.00098573
9392.304,0.00098536
9395.309,0.00098512
9398.304,0.00098573
9401.302,0.00098671
9404.304,0.00098782
9407.306,0.00098782
9410.304,0.00098818
9413.280,0.00098782
9416.310,0.00098818
9419.283,0.00098843
9422.334,0.00098794
9425.304,0.00098831
9428.305,0.00098806
9431.277,0.00098794
9434.278,0.00098745
9437.278,0.00098745
9440.299,0.0009872
9443.312,0.00098683
9446.299,0.00098671
9449.272,0.00098634
9452.281,0.00098585
9455.273,0.00098573
9458.273,0.00098548
9461.273,0.00098512
9464.319,0.00098463
9467.278,0.00098438
9470.273,0.00098401
9473.275,0.00098364
9476.273,0.00098364
9479.273,0.00098328
9482.275,0.00098328
9485.303,0.0009834
9488.293,0.00098303
9491.280,0.00098242
9494.273,0.00098266
9497.284,0.00098229
9500.277,0.00098217
9503.273,0.00098193
9506.303,0.00098217
9509.304,0.00098303
9512.310,0.00098401
9515.281,0.00098475
9518.278,0.00098536
9521.280,0.00098524
9524.278,0.00098561
9527.276,0.00098585
9530.278,0.0009861
9533.278,0.00098548
9536.278,0.00098573
9539.285,0.00098561
9542.278,0.00098561
9545.281,0.00098573
9548.279,0.00098561
9551.279,0.00098536
9554.276,0.00098512
9557.280,0.00098499
9560.278,0.0009845
9563.282,0.00098438
9566.281,0.00098426
9569.280,0.00098438
9572.277,0.00098401
9575.276,0.00098377
9578.277,0.00098364
9581.278,0.0009834
9584.278,0.00098303
9587.257,0.00098328
9590.276,0.00098303
9593.278,0.00098254
9596.280,0.00098229
9599.276,0.0009818
9602.255,0.0009818
9605.252,0.00098144
9608.251,0.00098095
9611.259,0.00098156
9614.251,0.00098254
9617.252,0.00098303
9620.255,0.00098377
9623.253,0.00098377
9626.253,0.00098377
9629.251,0.00098401
9632.249,0.00098364
9635.258,0.00098352
9638.252,0.00098303
9641.254,0.00098279
9644.250,0.00098279
9647.243,0.00098242
9650.255,0.00098229
9653.259,0.00098205
9656.250,0.00098144
9659.259,0.00098131
9662.252,0.00098095
9665.252,0.00098119
9668.254,0.00098033
9671.254,0.00098058
9674.252,0.00098021
9677.253,0.00098009
9680.251,0.00098009
9683.286,0.00097996
9686.251,0.00097984
9689.253,0.00097984
9692.252,0.00097972
9695.252,0.00098009
9698.253,0.00097972
9701.226,0.00097947
9704.252,0.00098082
9707.259,0.00098193
9710.226,0.00098217
9713.229,0.00098303
9716.254,0.00098303
9719.253,0.00098328
9722.252,0.00098364
9725.252,0.00098364
9728.251,0.00098352
9731.231,0.00098364
9734.262,0.00098389
9737.254,0.00098352
9740.251,0.00098303
9743.251,0.00098328
9746.252,0.00098315
9749.251,0.00098266
9752.251,0.00098242
9755.286,0.00098205
9758.252,0.00098217
9761.252,0.00098144
9764.232,0.00098156
9767.226,0.00098119
9770.254,0.00098082
9773.252,0.00098058
9776.278,0.00098033
9779.232,0.00098058
9782.227,0.00097996
9785.225,0.00097984
9788.225,0.00097984
9791.228,0.00097947
9794.224,0.00097947
9797.266,0.00097984
9800.572,0.0009807
9803.547,0.00098168
9806.905,0.00098205
9809.878,0.00098242
9812.906,0.00098242
9815.881,0.00098266
9818.880,0.00098328
9821.883,0.00098279
9824.878,0.00098279
9827.882,0.00098266
9830.884,0.00098291
9833.878,0.00098254
9836.880,0.00098242
9839.880,0.00098205
9842.878,0.0009818
9845.881,0.00098168
9848.877,0.00098131
9851.883,0.00098131
9854.881,0.00098168
9857.879,0.00098095
9860.879,0.00098095
9863.897,0.00098095
9867.230,0.00098082
9870.225,0.00098045
9873.227,0.00098033
9876.225,0.00097972
9879.225,0.00097972
9882.226,0.00097972
9885.226,0.0009791
9888.201,0.00097923
9891.205,0.00097861
9894.199,0.00097861
9897.192,0.00097812
9900.208,0.00097861
9903.254,0.00097947
9906.201,0.00098045
9909.202,0.0009807
9912.201,0.00098131
9915.203,0.00098144
9918.196,0.00098144
9921.197,0.0009818
9924.233,0.00098205
9927.172,0.00098217
9930.229,0.00098229
9933.220,0.00098229
9936.192,0.00098205
9939.193,0.00098205
9942.188,0.0009818
9945.214,0.00098156
9948.223,0.00098156
9951.199,0.00098156
9954.226,0.00098107
9957.201,0.00098058
9960.200,0.00098095
9963.206,0.00098058
9966.226,0.00098045
9969.200,0.00098045
9972.201,0.00097996
9975.200,0.00097984
9978.200,0.00097984
9981.198,0.00097935
9984.235,0.00097874
9987.205,0.00097874
9990.200,0.00097849
9993.198,0.00097874
9996.204,0.00097837
9999.200,0.00097812
10002.202,0.00097776
10005.201,0.00097751
10008.200,0.00097776
10011.205,0.00097726
10014.170,0.00097788
10017.200,0.00097861
10020.200,0.00097923
10023.202,0.00097972
10026.176,0.00097984
10029.201,0.00098045
10032.238,0.00098045
10035.205,0.00098045
10038.201,0.00098021
10041.200,0.00097996
10044.203,0.00098033
10047.168,0.00097996
10050.540,0.00097947
10053.514,0.00097935
10056.512,0.00097923
10059.522,0.00097935
10062.512,0.00097935
10065.545,0.00097947
10068.543,0.0009791
10071.513,0.00097874
10074.514,0.00097837
10077.514,0.00097812
10080.514,0.00097812
10083.826,0.00097788
10086.873,0.00097776
10089.855,0.00097751
10092.856,0.00097702
10095.852,0.00097702
10098.854,0.00097665
10101.853,0.00097653
10104.903,0.00097604
10108.175,0.00097555
10111.199,0.00097555
10114.163,0.00097579
10117.173,0.00097542
10120.173,0.00097542
10123.178,0.00097518
10126.172,0.00097518
10129.173,0.00097481
10132.176,0.0009753
10135.173,0.00097677
10138.173,0.00097739
10141.175,0.00097812
10144.174,0.00097886
10147.148,0.00097898
10150.517,0.00097947
10153.518,0.00097947
10156.546,0.0009796
10159.518,0.00097972
10162.518,0.00097984
10165.514,0.0009796
10168.516,0.00097984
10171.557,0.00097947
10174.510,0.0009796
10177.502,0.0009791
10180.523,0.0009791
10183.852,0.00097886
10186.828,0.00097861
10189.826,0.00097849
10192.826,0.00097825
10195.860,0.00097812
10198.859,0.00097776
10201.824,0.00097788
10204.826,0.00097763
10207.829,0.00097726
10210.826,0.00097702
10213.833,0.00097714
10217.173,0.0009769
10220.174,0.00097653
10223.173,0.00097641
10226.175,0.00097616
10229.173,0.00097555
10232.173,0.00097555
10235.179,0.0009753
10238.176,0.00097506
10241.173,0.00097481
10244.175,0.00097444
10247.174,0.00097481
10250.490,0.00097604
10253.489,0.00097702
10256.486,0.00097739
10259.495,0.00097788
10262.490,0.000978
10265.488,0.000978
10268.492,0.00097825
10271.489,0.00097849
10274.488,0.00097812
10277.497,0.00097825
10280.458,0.00097837
10283.835,0.00097788
10286.826,0.00097776
10289.822,0.00097776
10292.826,0.00097739
10295.826,0.00097702
10298.826,0.00097714
10301.826,0.00097677
10304.803,0.00097641
10307.804,0.00097604
10310.826,0.00097579
10313.826,0.00097555
10317.177,0.00097493
10320.148,0.00097469
10323.151,0.00097407
10326.147,0.00097395
10329.147,0.00097395
10332.148,0.00097346
10335.147,0.00097334
10338.145,0.00097334
10341.149,0.00097309
10344.149,0.00097334
10347.152,0.00097322
10350.806,0.00097272
10353.822,0.00097248
10356.801,0.00097211
10359.797,0.00097236
10362.800,0.00097236
10365.800,0.00097187
10368.802,0.00097199
10371.805,0.00097187
10374.804,0.00097174
10377.802,0.00097137
10380.770,0.00097113
10383.798,0.00097248
10386.802,0.00097346
10389.802,0.00097432
10392.800,0.00097481
10395.808,0.00097542
10398.798,0.00097567
10401.800,0.00097555
10404.800,0.00097579
10407.803,0.00097567
10410.798,0.00097555
10413.789,0.00097579
10417.118,0.00097542
10420.111,0.00097506
10423.102,0.00097518
10426.094,0.00078095
10429.150,0.00063384
10432.150,0.00052072
10435.152,0.00042943
10438.128,0.00035643
10441.142,0.00029619
10444.146,0.00024748
10447.130,0.00020699
10450.272,0.00017361
10453.455,0.00014368
10456.485,0.00012171
10459.489,0.00010355
10462.462,8.8954E-05
10465.454,7.6439E-05
10468.485,6.6378E-05
10471.456,5.8157E-05
10474.454,5.0795E-05
10477.454,4.5274E-05
10480.487,4.0489E-05
10483.462,3.6931E-05
10486.454,3.3618E-05
10489.454,3.0919E-05
10492.454,2.8833E-05
10495.454,2.687E-05
10498.452,2.5152E-05
10501.455,2.3803E-05
10504.484,2.2698E-05
10507.464,2.1717E-05
10510.458,2.1103E-05
10513.452,2.0367E-05
10516.452,1.9754E-05
10519.456,1.914E-05
10522.454,1.8895E-05
10525.452,1.8649E-05
10528.457,1.8281E-05
10531.460,1.8281E-05
10534.454,1.7668E-05
10537.454,1.7913E-05
10540.454,1.7545E-05
10543.454,1.7177E-05
10546.483,1.7177E-05
10549.456,1.6932E-05
10552.452,1.6564E-05
10555.490,1.6809E-05
10558.453,1.6686E-05
10561.453,1.6809E-05
10564.461,1.6564E-05
10567.455,1.6195E-05
10570.454,1.6195E-05
10573.459,1.6318E-05
10576.456,1.6318E-05
10579.436,1.6073E-05
10582.484,1.5827E-05
10585.453,1.6195E-05
10588.454,1.6073E-05
10591.457,1.595E-05
10594.454,1.6441E-05
10597.459,1.5827E-05
10600.459,1.595E-05
10603.439,1.5582E-05
10606.463,1.5705E-05
10609.489,1.5827E-05
10612.459,1.5827E-05
10615.459,1.5827E-05
10618.433,1.5582E-05
10621.434,1.5582E-05
10624.432,1.5337E-05
10627.446,1.5459E-05
10630.433,1.5459E-05
10633.769,1.5582E-05
10636.773,1.5705E-05
10639.775,1.5337E-05
10642.773,1.5459E-05
10645.773,1.5582E-05
10648.774,1.5459E-05
10651.807,1.5091E-05
10654.770,1.5459E-05
10657.773,1.5459E-05
10660.795,1.5091E-05
10663.772,1.5337E-05
10667.099,1.5337E-05
10670.142,1.5214E-05
10673.115,1.5214E-05
10676.095,1.5337E-05
10679.147,1.5091E-05
10682.122,1.5214E-05
10685.120,1.5214E-05
10688.122,1.5091E-05
10691.102,1.5459E-05
10694.120,1.5091E-05
10697.095,1.5459E-05
10700.153,1.5091E-05
10703.458,1.5091E-05
10706.461,1.5214E-05
10709.460,1.5091E-05
10712.458,1.5091E-05
10715.441,1.5091E-05
10718.463,1.5214E-05
10721.459,1.4969E-05
10724.436,1.5337E-05
10727.431,1.5337E-05
10730.435,1.5337E-05
10832.445,1.442E-05
10835.443,1.4383E-05
10838.462,1.442E-05
10841.433,1.4433E-05
10844.432,1.4395E-05
10847.434,1.4433E-05
10850.433,1.4433E-05
10853.433,1.447E-05
10856.435,1.4457E-05
10859.470,1.4433E-05
10862.432,1.4445E-05
10865.462,1.4445E-05
10868.469,1.4445E-05
10871.433,1.4445E-05
10874.432,1.4445E-05
10877.434,1.4457E-05
10880.432,1.447E-05
10883.414,1.4445E-05
10886.435,1.447E-05
10889.432,1.4445E-05
10892.432,1.4482E-05
10895.435,1.4457E-05
10898.430,1.4445E-05
10901.431,1.4445E-05
10904.438,1.4433E-05
10907.440,1.442E-05
10910.433,1.4433E-05
10913.432,1.442E-05
10916.436,1.4408E-05
10919.432,1.4358E-05
10922.430,1.4371E-05
10925.434,1.4395E-05
10928.432,1.4346E-05
10931.413,1.4333E-05
10934.407,1.4358E-05
10937.406,1.4358E-05
10940.432,1.4309E-05
10943.434,1.4321E-05
10946.436,1.4371E-05
10949.408,1.4333E-05
10952.406,1.4358E-05
10955.414,1.4296E-05
10958.408,1.4309E-05
10961.395,1.4321E-05
10964.436,1.4346E-05
10967.406,1.4309E-05
10970.409,1.4358E-05
10973.406,1.4333E-05
10976.406,1.4346E-05
10979.414,1.4333E-05
10982.405,1.4371E-05
10985.408,1.4346E-05
10988.408,1.4346E-05
10991.406,1.4371E-05
10994.405,1.4395E-05
10997.442,1.4408E-05
11000.406,1.4383E-05
11003.414,1.442E-05
11006.408,1.4383E-05
11009.406,1.4358E-05
11012.410,1.4371E-05
11015.436,1.4408E-05
11018.409,1.4383E-05
11021.406,1.4371E-05
11024.402,1.4346E-05
11027.446,1.4333E-05
11030.411,1.4346E-05
11033.721,1.4333E-05
11036.718,1.4333E-05
11039.746,1.4333E-05
11042.748,1.4309E-05
11045.781,1.4309E-05
11048.749,1.4271E-05
11051.728,1.4321E-05
11054.740,1.4284E-05
11057.723,1.4259E-05
11060.748,1.4284E-05
11063.721,1.4284E-05
11066.749,1.4247E-05
11069.748,1.4259E-05
11072.747,1.4259E-05
11075.728,1.4259E-05
11078.722,1.4284E-05
11081.722,1.4284E-05
11084.750,1.4271E-05
11087.779,1.4259E-05
11090.724,1.4247E-05
11093.723,1.4271E-05
11096.721,1.4296E-05
11099.726,1.4284E-05
11102.722,1.4321E-05
11105.722,1.4284E-05
11108.756,1.4309E-05
11111.722,1.4296E-05
11114.751,1.4321E-05
11117.724,1.4271E-05
11120.725,1.4333E-05
11123.727,1.4296E-05
11126.721,1.4309E-05
11129.749,1.4284E-05
11232.401,1.4209E-05
11235.390,1.4201E-05
11238.379,1.4189E-05
11241.379,1.4195E-05
11244.380,1.419E-05
11247.378,1.4175E-05
11250.355,1.4178E-05
11253.380,1.4177E-05
11256.354,1.4161E-05
11259.364,1.4152E-05
11262.380,1.4156E-05
11265.356,1.4138E-05
11268.382,1.4127E-05
11271.354,1.413E-05
11274.355,1.4121E-05
11277.380,1.41E-05
11280.385,1.4098E-05
11283.364,1.4094E-05
11286.380,1.4074E-05
11289.353,1.4073E-05
11292.380,1.4074E-05
11295.353,1.4063E-05
11298.354,1.4056E-05
11301.380,1.4066E-05
11304.356,1.4067E-05
11307.362,1.406E-05
11310.354,1.4063E-05
11313.356,1.4076E-05
11316.354,1.4068E-05
11319.354,1.4074E-05
11322.355,1.4087E-05
11325.354,1.4089E-05
11328.358,1.4088E-05
11331.363,1.4101E-05
11334.356,1.4109E-05
11337.354,1.4104E-05
11340.324,1.4115E-05
11343.358,1.413E-05
11346.354,1.412E-05
11349.355,1.4125E-05
11352.356,1.4138E-05
11355.362,1.4135E-05
11358.354,1.4132E-05
11361.356,1.4142E-05
11364.352,1.4143E-05
11367.356,1.4132E-05
11370.357,1.4137E-05
11373.354,1.4137E-05
11376.359,1.4132E-05
11379.395,1.4127E-05
11382.389,1.4131E-05
11385.381,1.412E-05
11388.386,1.411E-05
11391.382,1.4119E-05
11394.382,1.411E-05
11397.418,1.4098E-05
11400.732,1.4103E-05
11403.705,1.41E-05
11406.731,1.4085E-05
11409.727,1.4082E-05
11413.015,1.4092E-05
11416.054,1.4079E-05
11419.047,1.4074E-05
11422.047,1.4084E-05
11425.046,1.4082E-05
11428.047,1.4089E-05
11431.054,1.4464E-05
11434.046,1.9601E-05
11437.047,2.7449E-05
11440.043,3.3677E-05
11443.042,3.873E-05
11446.044,4.287E-05
11449.042,4.6273E-05
11452.043,4.9058E-05
11455.041,5.135E-05
11458.042,5.3231E-05
11662.320,0.00096966
11665.309,0.00096733
11668.305,0.00096585
11671.302,0.00096438
11674.304,0.00096303
11677.302,0.0009623
11680.271,0.00096242
11683.312,0.00096279
11686.304,0.00096303
11689.302,0.00096315
11692.274,0.00096291
11695.270,0.00096291
11698.301,0.00096254
11701.302,0.0009623
11704.305,0.00096168
11707.307,0.00096193
11710.307,0.00096131
11713.271,0.00096082
11716.303,0.00096046
11719.302,0.00096021
11722.306,0.00095984
11725.302,0.00095923
11728.247,0.00095923
11731.276,0.00095911
11734.306,0.00095874
11737.302,0.00095849
11740.304,0.00095776
11743.307,0.00095763
11746.302,0.00095702
11749.304,0.00095837
11752.304,0.00095886
11755.291,0.0009596
11758.278,0.00095996
11761.276,0.00096021
11764.278,0.00096033
11767.303,0.00096033
11770.276,0.0009607
11773.303,0.00096082
11776.281,0.00096058
11779.285,0.00096009
11782.276,0.00096009
11785.303,0.00095996
11788.278,0.0009596
11791.239,0.00095947
11794.289,0.00095886
11797.301,0.00095874
11800.281,0.00095874
11803.286,0.00095837
11806.313,0.00095837
11809.281,0.00095812
11812.286,0.00095751
11815.286,0.00095763
11818.282,0.00095886
11821.282,0.00095984
11824.288,0.00095996
11827.286,0.00096046
11830.280,0.0009607
11833.280,0.0009607
11836.281,0.00096082
11839.248,0.00096046
11842.286,0.00096046
11845.282,0.00096082
11848.279,0.00096095
11851.286,0.0009607
11854.282,0.00096082
11857.282,0.00096058
11860.283,0.00096046
11863.285,0.00096021
11866.281,0.00096009
11869.281,0.00095972
11872.288,0.00095972
11875.286,0.00095911
11878.281,0.00095935
11881.279,0.00095898
11884.281,0.00095886
11887.283,0.00095861
11890.281,0.00095837
11893.285,0.00095849
11896.281,0.00095837
11899.260,0.00095788
11902.283,0.00095886
11905.281,0.00095972
11908.286,0.00096058
11911.286,0.00096082
11914.280,0.00096119
11917.223,0.00096144
11920.289,0.00096156
11923.265,0.00096156
11926.283,0.00096156
11929.598,0.00096107
11932.597,0.00096144
11935.595,0.00096095
11938.597,0.00096095
11941.597,0.00096095
11944.565,0.00096046
11947.615,0.00096082
11950.596,0.0009607
11953.602,0.00096046
11956.597,0.00096046
11959.597,0.00096033
11962.932,0.00096009
11965.931,0.00096009
11968.934,0.00096021
11971.940,0.00095972
11974.933,0.0009596
11977.934,0.00095972
11980.933,0.00095935
11983.939,0.00095923
11986.935,0.00095886
11989.934,0.00095874
11992.941,0.00095861
11995.939,0.00095837
11998.913,0.00095947
12001.953,0.00096046
12004.939,0.00096095
12007.937,0.00096168
12010.935,0.00096131
12013.921,0.0009618
12016.937,0.00096193
12019.945,0.0009618
12022.910,0.00096193
12025.880,0.00096144
12028.907,0.00096156
12031.914,0.00096119
12034.934,0.00096131
12037.908,0.00096131
12040.939,0.0009607
12043.914,0.00096095
12046.928,0.00096046
12049.903,0.00096058
12052.941,0.00096033
12055.915,0.00096046
12058.913,0.00096009
12061.934,0.00096009
12064.906,0.00096009
12067.917,0.00095996
12070.940,0.00095984
12073.937,0.00095935
12076.908,0.00095935
12079.937,0.00095911
12083.256,0.00095911
12086.262,0.00095923
12089.229,0.00095898
12092.235,0.00095837
12095.230,0.00095825
12098.228,0.00095776
12101.256,0.00095861
12104.257,0.00095984
12107.234,0.00096046
12110.229,0.00096119
12113.260,0.0009618
12116.257,0.00096217
12119.221,0.00096242
12122.261,0.00096254
12125.260,0.00096279
12128.256,0.00096242
12131.233,0.00096254
12134.230,0.00096242
12137.256,0.0009623
12140.201,0.00096242
12143.230,0.00096205
12146.230,0.00096168
12149.233,0.0009618
12152.230,0.00096131
12155.233,0.00096156
12158.229,0.00096131
12161.229,0.00096107
12164.228,0.00096107
12167.198,0.00096095
12170.229,0.00096107
12173.229,0.0009607
12176.235,0.00096033
12179.237,0.00096046
12182.227,0.00096046
12185.229,0.00096046
12188.234,0.00096119
12191.229,0.00096242
12194.198,0.0009634
12197.269,0.00096438
12200.229,0.00096499
12203.234,0.00096573
12206.235,0.00096647
12209.230,0.00096684
12212.231,0.0009672
12215.234,0.00096818
12218.229,0.00096843
12221.228,0.00096843
12224.234,0.00096892
12227.234,0.00096892
12230.197,0.00096929
12233.228,0.00096904
12236.234,0.00096953
12239.230,0.00097003
12242.228,0.00097003
12245.226,0.00097003
12248.228,0.00097039
12251.234,0.00097052
12254.228,0.00097052
12257.227,0.00097052
12260.195,0.00097039
12263.254,0.00097052
12266.543,0.00097039
12269.548,0.00097027
12272.544,0.00096978
12275.540,0.00096953
12278.550,0.00096966
12281.549,0.00097088
12284.543,0.00097162
12287.543,0.0009726
12290.549,0.00097309
12293.537,0.00097383
12296.534,0.00097407
12299.518,0.00097444
12302.538,0.00097432
12305.537,0.0009742
12308.544,0.00097456
12311.536,0.00097444
12314.533,0.00097432
12317.537,0.00097456
12320.531,0.00097518
12323.505,0.0009753
12326.537,0.0009753
12329.537,0.00097542
12332.513,0.00097542
12335.534,0.0009753
12338.504,0.00097542
12341.536,0.00097555
12344.535,0.00097542
12347.540,0.00097591
12350.538,0.00097591
12353.534,0.00097555
12356.536,0.00097567
12359.531,0.00097567
12362.534,0.00097579
12365.536,0.00097567
12368.532,0.00097579
12371.513,0.00097591
12374.537,0.00097567
12377.547,0.00097567
12380.556,0.00097591
12383.550,0.00097555
12386.513,0.00097714
12389.543,0.00097812
12392.553,0.00097898
12395.523,0.00097984
12398.546,0.0009807
12401.542,0.00098107
12404.543,0.00098168
12407.517,0.00098205
12410.543,0.00098242
12413.496,0.00098217
12416.518,0.00098254
12419.520,0.00098315
12422.522,0.00098303
12425.546,0.00098315
12428.544,0.00098315
12431.543,0.00098315
12434.549,0.00098291
12437.543,0.00098291
12440.536,0.00098266
12443.546,0.00098303
12446.512,0.00098303
12449.538,0.00098291
12452.545,0.00098279
12455.513,0.00098291
12458.515,0.00098254
12461.515,0.00098266
12464.511,0.00098266
12467.520,0.00098279
12470.512,0.00098266
12473.513,0.00098279
12476.513,0.00098303
12479.513,0.00098315
12482.514,0.0009834
12485.513,0.00098377
12488.517,0.00098401
12491.517,0.0009845
12494.480,0.00098463
12497.513,0.00098487
12500.513,0.00098524
12503.513,0.00098573
12506.517,0.0009872
12509.514,0.00098843
12512.512,0.00098953
12515.520,0.00099101
12518.517,0.00099125
12521.512,0.00099223
12524.512,0.0009926
12527.514,0.00099285
12530.530,0.00099309
12533.513,0.00099334
12536.517,0.00099346
12539.496,0.00099371
12542.512,0.0009942
12545.515,0.00099432
12548.511,0.00099444
12551.514,0.00099444
12554.518,0.00099481
12557.514,0.00099444
12560.511,0.00099444
12563.870,0.00099444
12566.824,0.00099444
12569.850,0.00099456
12572.850,0.00099456
12575.859,0.0009942
12578.820,0.00099395
12581.849,0.0009942
12584.822,0.00099371
12587.838,0.00099383
12590.846,0.00099334
12593.823,0.00099309
12596.819,0.00099334
12599.822,0.00099321
12602.848,0.00099358
12605.820,0.00099309
12608.825,0.00099285
12611.829,0.00099383
12614.823,0.00099493
12617.825,0.00099555
12620.787,0.0009964
12623.829,0.00099677
12626.829,0.00099726
12629.866,0.00099775
12632.829,0.00099825
12635.825,0.00099849
12639.166,0.00099898
12642.177,0.0009991
12645.178,0.00099984
12648.179,0.00099972
12651.181,0.0010005
12654.177,0.0010003
12657.203,0.0010008
12660.177,0.0010016
12663.193,0.0010016
12666.177,0.0010017
12669.177,0.0010023
12672.177,0.0010025
12675.179,0.0010027
12678.181,0.0010025
12681.175,0.0010029
12684.146,0.0010033
12687.180,0.001003
12690.177,0.0010033
12693.146,0.001003
12696.181,0.0010033
12699.182,0.0010028
12702.177,0.0010029
12705.179,0.0010032
12708.177,0.0010033
12711.177,0.0010033
12714.177,0.0010033
12717.177,0.0010035
12720.177,0.0010034
12723.184,0.0010034
12726.177,0.0010035
12729.149,0.0010034
12732.187,0.0010033
12735.174,0.0010034
12738.183,0.0010036
12741.183,0.0010038
12744.488,0.0010041
12747.495,0.001004
12750.491,0.0010039
12753.515,0.0010046
12756.519,0.0010051
12759.518,0.0010056
12762.518,0.0010065
12765.489,0.0010074
12768.511,0.0010078
12771.497,0.0010086
12774.518,0.0010092
12777.485,0.0010098
12780.460,0.0010103
12783.515,0.001011
12786.483,0.0010116
12789.489,0.0010122
12792.455,0.001014
12795.496,0.0010148
12798.485,0.0010158
12801.489,0.001017
12804.489,0.0010174
12807.487,0.0010179
12810.492,0.0010184
12813.516,0.001019
12816.490,0.0010192
12819.497,0.0010197
12822.489,0.0010198
12825.494,0.0010203
12828.490,0.0010205
12831.457,0.0010206
12834.494,0.0010206
12837.493,0.0010208
12840.490,0.0010212
12843.498,0.0010208
12846.478,0.0010213
12849.489,0.0010214
12852.490,0.0010214
12855.487,0.0010213
12858.490,0.0010214
12861.489,0.0010212
12864.488,0.0010209
12867.496,0.0010209
12870.490,0.0010211
12873.493,0.0010207
12876.490,0.0010207
12879.489,0.0010203
12882.457,0.0010202
12885.491,0.0010203
12888.489,0.0010198
12891.499,0.0010201
12894.485,0.0010195
12897.487,0.0010198
12900.455,0.0010197
12903.493,0.0010192
12906.489,0.001019
12909.489,0.0010186
12912.489,0.0010182
12915.475,0.0010185
12918.461,0.0010195
12921.494,0.0010206
12924.490,0.0010211
12927.489,0.0010219
12930.455,0.0010222
12933.493,0.0010227
12936.468,0.0010225
12939.473,0.0010225
12942.497,0.001022
12945.463,0.0010224
12948.468,0.0010223
12951.467,0.0010219
12954.488,0.0010223
12957.489,0.0010216
12960.466,0.0010217
12963.411,0.0010217
12966.462,0.0010217
12969.461,0.0010214
12972.465,0.0010211
12975.467,0.0010212
12978.430,0.0010209
12981.428,0.0010205
12984.466,0.0010201
12987.474,0.00102
12990.462,0.0010197
12993.462,0.0010195
12996.458,0.0010196
12999.805,0.0010193
13002.804,0.001019
13005.829,0.001019
13008.770,0.0010187
13011.807,0.0010182
13014.803,0.0010184
13017.803,0.0010184
13020.803,0.0010195
13023.792,0.0010203
13026.817,0.0010212
13030.123,0.0010217
13033.125,0.0010223
13036.095,0.0010223
13039.093,0.0010227
13042.124,0.0010224
13045.124,0.0010225
13048.127,0.0010225
13051.129,0.0010227
13054.124,0.001022
13057.129,0.0010222
13060.127,0.0010224
13063.122,0.0010224
13066.428,0.0010219
13069.461,0.001022
13072.462,0.0010218
13075.444,0.0010217
13078.462,0.0010218
13081.460,0.0010216
13084.466,0.0010213
13087.467,0.0010211
13090.436,0.0010208
13093.463,0.0010211
13096.427,0.0010208
13099.444,0.0010206
13102.428,0.0010207
13105.439,0.0010202
13108.436,0.0010198
13111.436,0.0010198
13114.464,0.00102
13117.461,0.0010211
13120.436,0.0010217
13123.444,0.0010219
13126.436,0.0010224
13129.437,0.0010223
13132.447,0.0010229
13135.779,0.0010229
13138.777,0.0010225
13141.781,0.0010225
13144.777,0.0010224
13147.749,0.001022
13150.782,0.0010224
13153.781,0.0010219
13156.779,0.0010218
13159.777,0.0010216
13163.042,0.0010218
13166.100,0.0010212
13169.098,0.0010213
13172.098,0.0010212
13175.101,0.0010214
13178.101,0.0010211
13181.098,0.0010213
13184.101,0.0010209
13187.103,0.0010212
13190.099,0.0010208
13193.099,0.0010214
13196.096,0.0010212
13199.069,0.0010213
13202.098,0.0010214
13205.098,0.0010216
13208.098,0.0010218
13211.103,0.0010217
13214.097,0.0010218
13217.099,0.0010217
13220.103,0.0010223
13223.103,0.0010224
13226.065,0.0010224
13229.102,0.0010228
13232.098,0.0010229
13235.104,0.0010228
13238.100,0.0010233
13241.101,0.0010234
13244.092,0.0010238
13247.049,0.0010236
13250.099,0.0010239
13253.097,0.001024
13256.099,0.0010238
13259.081,0.0010238
13262.099,0.0010254
13265.092,0.0010265
13268.099,0.0010271
13271.095,0.0010279
13274.088,0.0010286
13277.077,0.0010289
13280.091,0.0010294
13283.418,0.0010289
13286.438,0.0010289
13289.377,0.0010292
13292.381,0.0010288
13295.410,0.0010289
13298.435,0.0010288
13301.412,0.0010281
13304.411,0.0010282
13307.423,0.0010282
13310.409,0.0010279
13313.430,0.0010278
13316.415,0.0010277
13319.443,0.0010278
13322.752,0.0010281
13325.751,0.0010274
13328.756,0.0010271
13331.754,0.0010277
13334.777,0.0010272
13337.747,0.001027
13340.746,0.0010271
13343.746,0.0010268
13346.787,0.0010266
13349.748,0.0010266
13352.712,0.0010265
13355.754,0.0010263
13358.746,0.0010263
13361.746,0.001026
13364.744,0.0010262
13367.748,0.0010265
13370.747,0.0010262
13373.747,0.0010266
13376.751,0.0010261
13379.721,0.0010265
13382.745,0.0010262
13385.749,0.0010265
13388.748,0.001026
13391.747,0.0010261
13394.752,0.0010263
13397.714,0.0010265
13400.744,0.0010263
13404.066,0.0010262
13407.066,0.0010262
13410.068,0.0010261
13413.051,0.0010261
13416.404,0.0010263
13419.417,0.0010257
13422.404,0.0010261
13425.408,0.0010257
13428.404,0.0010255
13431.373,0.001025
13434.405,0.0010245
13437.352,0.00084144
13440.373,0.00067899
13443.391,0.00055568
13446.434,0.00045802
13449.378,0.00037937
13452.378,0.00031582
13455.385,0.00026244
13458.379,0.00021962
13461.345,0.00018429
13464.382,0.00015496
13467.387,0.00013104
13470.404,0.00011116
13473.384,9.4843E-05
13476.383,8.1714E-05
13479.378,7.0917E-05
13482.376,6.1593E-05
13485.380,5.3985E-05
13488.380,4.7728E-05
13491.359,4.2698E-05
13494.347,3.8281E-05
13497.377,3.4722E-05
13500.379,3.2268E-05
13503.385,2.9569E-05
13506.380,2.7606E-05
13509.359,2.6011E-05
13512.383,2.4539E-05
13515.363,2.3434E-05
13518.697,2.2453E-05
13521.797,2.1717E-05
13525.011,2.0612E-05
13528.047,2.0122E-05
13531.039,1.9631E-05
13534.040,1.8895E-05
13537.044,1.9017E-05
13540.042,1.8281E-05
13543.041,1.8281E-05
13546.047,1.7668E-05
13549.044,1.8159E-05
13552.040,1.7668E-05
13555.040,1.7545E-05
13558.042,1.7054E-05
13561.041,1.7177E-05
13564.039,1.6932E-05
13567.033,1.6932E-05
13570.040,1.6809E-05
13573.048,1.6564E-05
13576.052,1.6318E-05
13579.046,1.6195E-05
13582.334,1.6318E-05
13585.357,1.6195E-05
13588.358,1.6441E-05
13591.357,1.6073E-05
13594.357,1.595E-05
13597.328,1.6195E-05
13600.362,1.6073E-05
13603.361,1.5827E-05
13606.357,1.5827E-05
13609.362,1.6073E-05
13612.328,1.6195E-05
13615.358,1.5827E-05
13618.321,1.5827E-05
13621.364,1.5827E-05
13624.358,1.5459E-05
13627.367,1.6073E-05
13630.355,1.5582E-05
13633.348,1.6195E-05
13636.348,1.5582E-05
13639.350,1.595E-05
13642.376,1.5827E-05
13645.347,1.5705E-05
13648.351,1.5582E-05
13651.353,1.5827E-05
13654.347,1.595E-05
13657.351,1.595E-05
13660.352,1.5337E-05
13663.349,1.5459E-05
13666.314,1.5459E-05
13669.355,1.5582E-05
13672.325,1.5582E-05
13675.324,1.5582E-05
13678.331,1.5582E-05
13681.357,1.5827E-05
13684.329,1.5582E-05
13687.333,1.5459E-05
13690.360,1.5091E-05
13693.331,1.5459E-05
13696.355,1.5337E-05
13699.336,1.5582E-05
13702.357,1.5582E-05
13705.362,1.4969E-05
13708.307,1.5705E-05
13711.339,1.5459E-05
13714.323,1.5214E-05
13717.364,1.5214E-05
13720.360,1.4969E-05
13723.337,1.5459E-05
13726.356,1.5214E-05
13729.324,1.5214E-05
13732.329,1.5337E-05
13735.357,1.5091E-05
13738.332,1.5459E-05
13741.331,1.5337E-05
13845.062,1.4532E-05
13848.356,1.4544E-05
13851.337,1.4519E-05
13854.331,1.4532E-05
13857.356,1.4494E-05
13860.329,1.4532E-05
13863.335,1.4494E-05
13866.333,1.4482E-05
13869.331,1.447E-05
13872.298,1.4532E-05
13875.336,1.4494E-05
13878.336,1.4445E-05
13881.330,1.4507E-05
13884.331,1.4482E-05
13887.336,1.4482E-05
13890.334,1.4519E-05
13893.331,1.4507E-05
13896.267,1.4494E-05
13899.341,1.4507E-05
13902.332,1.4494E-05
13905.673,1.4494E-05
13908.670,1.4494E-05
13911.672,1.4556E-05
13914.672,1.4544E-05
13917.673,1.4544E-05
13920.671,1.4569E-05
13923.677,1.4594E-05
13926.677,1.4569E-05
13929.641,1.4618E-05
13932.672,1.4569E-05
13935.648,1.4618E-05
13938.639,1.4581E-05
13941.673,1.4618E-05
13944.673,1.4594E-05
13947.677,1.4581E-05
13950.672,1.4606E-05
13953.672,1.4631E-05
13956.681,1.4594E-05
13959.673,1.4606E-05
13962.671,1.4643E-05
13966.045,1.4606E-05
13969.332,1.4594E-05
13972.329,1.4594E-05
13975.331,1.4618E-05
13978.334,1.4594E-05
13981.337,1.4594E-05
13984.334,1.4594E-05
13987.315,1.4581E-05
13990.305,1.4606E-05
13993.332,1.4581E-05
13996.295,1.4556E-05
13999.294,1.4556E-05
14002.294,1.4569E-05
14005.322,1.4594E-05
14008.326,1.4581E-05
14011.300,1.4618E-05
14014.295,1.4594E-05
14017.321,1.4606E-05
14020.329,1.4606E-05
14023.321,1.4581E-05
14026.637,1.4606E-05
14029.603,1.4581E-05
14033.333,1.4618E-05
14036.339,1.4631E-05
14039.305,1.4594E-05
14042.302,1.4606E-05
14045.305,1.4643E-05
14048.305,1.4631E-05
14051.315,1.4618E-05
14054.305,1.4606E-05
14057.305,1.4618E-05
14060.279,1.4631E-05
14063.285,1.4668E-05
14066.305,1.4643E-05
14069.310,1.4618E-05
14072.308,1.4656E-05
14075.309,1.4606E-05
14078.298,1.4618E-05
14081.310,1.4643E-05
14084.297,1.4618E-05
14087.309,1.4606E-05
14090.303,1.4594E-05
14093.307,1.4643E-05
14096.255,1.4606E-05
14099.315,1.4606E-05
14102.305,1.4618E-05
14105.305,1.4618E-05
14108.270,1.4631E-05
14111.306,1.4618E-05
14114.305,1.4631E-05
14117.310,1.4606E-05
14120.308,1.4581E-05
14123.310,1.4618E-05
14126.270,1.4631E-05
14129.310,1.4569E-05
14132.305,1.4618E-05
14135.301,1.4594E-05
14138.307,1.4606E-05
14141.305,1.4581E-05
14144.305,1.4581E-05
14244.964,1.4552E-05
14247.956,1.4555E-05
14250.894,1.457E-05
14253.952,1.4576E-05
14256.958,1.4566E-05
14259.958,1.4579E-05
14262.941,1.4584E-05
14265.953,1.4577E-05
14268.953,1.4583E-05
14271.952,1.4593E-05
14274.952,1.4581E-05
14277.930,1.4575E-05
14280.951,1.4581E-05
14283.934,1.4578E-05
14286.929,1.456E-05
14289.926,1.457E-05
14292.931,1.4566E-05
14295.927,1.4559E-05
14298.954,1.4554E-05
14301.927,1.4562E-05
14305.273,1.4555E-05
14308.273,1.4547E-05
14311.278,1.4555E-05
14314.294,1.4554E-05
14317.616,1.4542E-05
14320.618,1.4554E-05
14323.596,1.4556E-05
14326.615,1.4542E-05
14329.598,1.455E-05
14332.927,1.4556E-05
14335.928,1.4546E-05
14338.926,1.4547E-05
14341.929,1.4552E-05
14344.926,1.4551E-05
14347.937,1.4547E-05
14350.931,1.4559E-05
14353.934,1.4557E-05
14356.936,1.4549E-05
14359.931,1.4556E-05
14362.868,1.4566E-05
14365.929,1.456E-05
14368.931,1.4567E-05
14371.936,1.4579E-05
14374.931,1.4577E-05
14377.898,1.4576E-05
14380.931,1.4589E-05
14383.934,1.4595E-05
14386.932,1.4584E-05
14389.932,1.4595E-05
14392.901,1.4604E-05
14395.937,1.4599E-05
14398.932,1.4602E-05
14401.934,1.4615E-05
14404.935,1.4607E-05
14407.931,1.4605E-05
14410.931,1.4618E-05
14413.928,1.4619E-05
14416.936,1.4611E-05
14419.945,1.4623E-05
14422.933,1.4626E-05
14426.257,1.4618E-05
14429.256,1.4625E-05
14432.254,1.4632E-05
14435.262,1.4624E-05
14438.225,1.4619E-05
14441.248,1.4756E-05
14444.226,1.6161E-05
14447.220,2.4594E-05
14450.221,3.1386E-05
14453.229,3.6863E-05
14456.191,4.1341E-05
14459.226,4.5012E-05
14462.227,4.8027E-05
14465.224,5.05E-05
14468.222,5.2535E-05
14471.221,5.4199E-05
14673.896,0.0010369
14676.885,0.0010351
14679.883,0.0010335
14682.879,0.0010333
14685.887,0.0010331
14688.883,0.0010328
14691.884,0.0010322
14694.883,0.0010321
14697.885,0.0010315
14700.880,0.001031
14703.879,0.0010305
14706.888,0.0010301
14709.879,0.0010292
14712.882,0.0010286
14715.858,0.0010282
14718.880,0.0010277
14721.877,0.0010273
14724.884,0.0010268
14727.880,0.0010266
14730.878,0.0010262
14734.182,0.0010259
14737.209,0.0010255
14740.169,0.0010251
14743.208,0.0010246
14746.200,0.0010245
14749.208,0.001024
14752.202,0.0010244
14755.231,0.0010252
14758.204,0.0010257
14761.202,0.0010263
14764.172,0.0010267
14767.207,0.001027
14770.206,0.0010268
14773.200,0.0010271
14776.200,0.0010267
14779.179,0.0010268
14782.200,0.0010267
14785.200,0.0010261
14788.200,0.0010259
14791.201,0.001026
14794.541,0.0010252
14797.545,0.0010252
14800.540,0.0010247
14803.546,0.0010246
14806.567,0.0010247
14809.544,0.0010243
14812.541,0.0010243
14815.858,0.0010241
14818.853,0.0010239
14821.854,0.0010233
14824.863,0.0010234
14827.859,0.0010241
14830.873,0.0010247
14834.174,0.0010254
14837.168,0.0010256
14840.169,0.0010257
14843.169,0.0010257
14846.133,0.0010257
14849.200,0.0010259
14852.200,0.001026
14855.516,0.001026
14858.542,0.0010257
14861.515,0.0010257
14864.513,0.0010256
14867.517,0.0010254
14870.515,0.0010249
14873.516,0.0010249
14876.519,0.001025
14879.529,0.0010241
14882.515,0.0010243
14885.516,0.001024
14888.520,0.001024
14891.519,0.0010238
14894.508,0.0010238
14897.521,0.001023
14900.519,0.0010233
14903.516,0.0010245
14906.515,0.0010252
14909.482,0.0010261
14912.515,0.0010266
14915.517,0.0010271
14918.516,0.0010271
14921.515,0.0010273
14924.522,0.0010276
14927.518,0.0010272
14930.515,0.001027
14933.521,0.0010267
14936.484,0.0010267
14939.494,0.0010263
14942.481,0.0010259
14945.523,0.001026
14948.517,0.0010252
14951.515,0.0010247
14954.517,0.0010247
14957.515,0.0010245
14960.515,0.0010247
14963.517,0.0010244
14966.517,0.0010243
14969.517,0.0010238
14972.543,0.0010236
14975.828,0.0010235
14978.833,0.0010235
14981.830,0.0010232
14984.827,0.0010224
14987.805,0.0010224
14990.799,0.0010218
14993.796,0.0010217
14996.796,0.0010214
14999.798,0.0010214
15002.797,0.0010212
15005.795,0.0010207
15008.798,0.0010205
15011.801,0.0010208
15014.797,0.0010217
15017.796,0.0010225
15020.796,0.0010232
15023.795,0.0010233
15026.799,0.0010236
15029.795,0.001024
15032.795,0.0010241
15035.808,0.0010238
15038.798,0.0010238
15041.796,0.001024
15044.800,0.001024
15047.799,0.0010239
15050.797,0.0010239
15053.795,0.0010238
15056.797,0.0010235
15059.800,0.0010236
15062.802,0.0010233
15065.795,0.0010234
15068.795,0.0010232
15071.795,0.0010232
15074.769,0.0010229
15077.796,0.001024
15080.794,0.0010249
15083.772,0.0010259
15086.795,0.0010262
15089.771,0.0010266
15092.798,0.0010267
15095.795,0.0010267
15098.774,0.0010268
15101.770,0.0010268
15104.769,0.001027
15107.778,0.0010266
15110.771,0.0010263
15113.794,0.0010263
15116.809,0.0010259
15119.773,0.001026
15122.769,0.0010257
15125.769,0.0010251
15128.772,0.0010254
15131.773,0.0010249
15134.773,0.0010247
15137.771,0.0010241
15140.770,0.0010241
15143.769,0.0010239
15146.770,0.0010236
15149.773,0.0010236
15152.769,0.0010234
15155.778,0.0010234
15158.771,0.0010228
15161.769,0.0010229
15164.769,0.0010225
15167.773,0.0010223
15170.769,0.0010222
15173.769,0.0010218
15176.771,0.0010225
15179.774,0.0010236
15182.769,0.0010246
15185.771,0.0010249
15188.769,0.0010252
15191.770,0.0010255
15194.771,0.0010259
15197.767,0.001026
15200.769,0.0010262
15203.776,0.001026
15206.771,0.001026
15209.768,0.0010256
15212.795,0.0010252
15215.768,0.0010255
15218.769,0.0010252
15221.769,0.0010245
15224.770,0.001024
15227.750,0.0010243
15230.770,0.001024
15233.773,0.0010243
15236.776,0.0010238
15239.777,0.0010238
15242.772,0.0010233
15245.774,0.0010232
15248.774,0.0010232
15251.752,0.0010228
15254.759,0.0010227
15257.750,0.0010227
15260.744,0.0010228
15263.734,0.0010225
15266.777,0.0010222
15269.787,0.0010224
15273.090,0.0010223
15276.135,0.0010218
15279.092,0.0010219
15282.092,0.0010217
15285.088,0.0010216
15288.092,0.0010212
15291.095,0.0010211
15294.090,0.0010214
15297.091,0.0010225
15300.090,0.0010238
15303.090,0.0010241
15306.089,0.0010246
15309.091,0.0010247
15312.090,0.001025
15315.097,0.001025
15318.091,0.0010251
15321.090,0.0010249
15324.090,0.0010249
15327.092,0.001025
15330.089,0.0010251
15333.089,0.0010245
15336.092,0.0010241
15339.069,0.0010241
15342.067,0.0010239
15345.064,0.0010234
15348.062,0.0010233
15351.093,0.0010228
15354.064,0.001023
15357.063,0.0010227
15360.064,0.0010223
15363.105,0.0010228
15366.091,0.0010224
15369.774,0.0010224
15372.779,0.001022
15376.137,0.0010216
15379.102,0.0010227
15382.112,0.0010239
15385.092,0.0010246
15388.095,0.0010251
15391.097,0.0010257
15394.423,0.001026
15397.381,0.0010261
15400.402,0.0010265
15403.416,0.001026
15406.459,0.0010256
15409.437,0.0010255
15412.432,0.001026
15415.429,0.0010257
15418.434,0.0010259
15421.433,0.001025
15424.444,0.0010252
15427.435,0.001025
15430.429,0.0010243
15433.391,0.0010246
15436.427,0.0010241
15439.402,0.0010244
15443.437,0.0010241
15446.427,0.0010236
15449.419,0.0010232
15452.422,0.0010234
15455.445,0.0010229
15458.421,0.0010224
15461.419,0.001022
15464.422,0.0010225
15467.428,0.0010219
15470.426,0.0010216
15473.425,0.0010213
15476.423,0.0010213
15479.442,0.0010213
15482.420,0.0010211
15485.421,0.0010212
15488.420,0.0010207
15491.429,0.0010208
15494.421,0.0010206
15497.419,0.0010203
15500.403,0.0010197
15503.404,0.0010197
15506.428,0.0010202
15509.428,0.0010213
15512.429,0.0010222
15515.751,0.0010224
15518.743,0.0010233
15521.744,0.0010238
15524.743,0.0010238
15527.746,0.0010236
15530.742,0.0010236
15533.744,0.0010236
15536.748,0.0010239
15539.750,0.0010233
15542.744,0.0010235
15545.746,0.0010233
15548.744,0.0010233
15551.710,0.0010229
15554.748,0.0010227
15557.746,0.0010229
15561.069,0.0010233
15564.043,0.0010229
15567.065,0.0010225
15570.066,0.0010223
15573.064,0.0010224
15576.064,0.0010219
15579.074,0.001022
15582.032,0.0010217
15585.064,0.0010211
15588.070,0.0010213
15591.069,0.0010211
15594.064,0.0010207
15597.066,0.0010203
15600.066,0.0010202
15603.073,0.0010198
15606.068,0.00102
15609.068,0.0010197
15612.064,0.0010209
15615.064,0.0010222
15618.071,0.0010229
15621.064,0.0010233
15624.064,0.0010233
15627.074,0.0010236
15630.066,0.0010236
15633.064,0.0010235
15636.069,0.0010236
15639.068,0.0010235
15642.066,0.0010234
15645.038,0.0010228
15648.066,0.0010229
15651.074,0.0010224
15654.065,0.0010228
15657.074,0.0010227
15660.040,0.0010222
15663.080,0.0010222
15666.046,0.0010219
15669.048,0.0010217
15672.046,0.0010218
15675.031,0.0010213
15678.038,0.0010209
15681.046,0.0010211
15684.030,0.0010212
15687.059,0.0010207
15690.063,0.0010205
15693.063,0.0010206
15696.070,0.0010202
15699.394,0.0010198
15702.380,0.0010198
15705.378,0.0010196
15708.362,0.0010195
15711.719,0.0010196
15714.717,0.001019
15717.717,0.0010189
15720.722,0.0010191
15723.691,0.0010187
15727.041,0.0010197
15730.036,0.0010208
15733.036,0.0010216
15736.042,0.0010218
15739.038,0.0010223
15742.039,0.0010225
15745.043,0.0010228
15748.039,0.0010224
15751.038,0.001023
15754.065,0.0010228
15757.073,0.0010229
15760.038,0.001023
15763.037,0.0010232
15766.039,0.0010227
15769.038,0.0010224
15772.037,0.0010223
15775.041,0.0010223
15778.038,0.0010218
15781.036,0.0010216
15784.044,0.0010216
15787.043,0.0010211
15790.038,0.0010212
15793.042,0.0010211
15796.073,0.0010207
15799.379,0.0010205
15802.390,0.0010203
15805.403,0.0010198
15808.376,0.0010198
15811.388,0.0010193
15814.690,0.0010193
15817.691,0.0010191
15820.667,0.0010187
15823.693,0.001019
15826.693,0.0010187
15829.697,0.0010186
15832.691,0.0010191
15835.696,0.0010201
15838.695,0.0010211
15841.692,0.0010218
15844.691,0.001022
15847.696,0.0010224
15850.695,0.0010227
15853.691,0.0010228
15856.691,0.0010232
15859.697,0.0010229
15862.720,0.001023
15865.716,0.001023
15868.694,0.0010232
15871.693,0.0010227
15875.039,0.0010227
15878.046,0.0010224
15881.041,0.0010227
15884.041,0.001022
15887.041,0.0010219
15890.038,0.0010217
15893.038,0.0010216
15896.011,0.0010211
15899.040,0.0010211
15902.039,0.0010208
15905.043,0.0010209
15908.039,0.0010205
15911.034,0.0010205
15914.025,0.0010201
15917.013,0.0010201
15920.050,0.00102
15923.049,0.0010193
15926.006,0.0010192
15929.382,0.0010193
15932.659,0.00102
15935.693,0.0010211
15938.691,0.0010218
15941.698,0.0010225
15944.691,0.0010228
15947.671,0.0010228
15950.666,0.0010234
15953.692,0.0010234
15956.691,0.0010229
15959.660,0.0010233
15962.687,0.0010233
15965.669,0.001023
15968.698,0.0010232
15971.671,0.0010229
15974.615,0.0010227
15977.646,0.0010225
15980.674,0.0010224
15983.662,0.001022
15986.637,0.001022
15989.671,0.001022
15992.669,0.0010217
15995.742,0.0010218
15999.047,0.0010214
16002.011,0.0010214
16005.042,0.0010216
16008.051,0.0010212
16011.023,0.0010212
16014.044,0.0010208
16017.041,0.0010207
16020.043,0.0010203
16023.056,0.0010206
16026.355,0.0010201
16029.325,0.0010201
16032.359,0.0010197
16035.360,0.0010195
16038.301,0.0010191
16041.329,0.0010193
16044.357,0.0010211
16047.321,0.0010212
16050.363,0.001022
16053.409,0.0010225
16056.649,0.0010229
16059.647,0.0010229
16062.609,0.0010233
16065.679,0.0010227
16068.679,0.0010229
16071.674,0.0010232
16074.672,0.0010228
16077.638,0.001023
16080.658,0.0010228
16083.642,0.0010227
16086.675,0.0010228
16089.637,0.0010227
16092.671,0.0010224
16095.687,0.0010225
16099.048,0.0010224
16102.044,0.0010219
16105.044,0.0010222
16108.018,0.0010217
16111.047,0.001022
16114.355,0.0010213
16117.329,0.0010212
16120.332,0.0010214
16123.337,0.0010216
16126.329,0.0010212
16129.305,0.0010208
16132.338,0.0010212
16135.329,0.0010208
16138.329,0.0010206
16141.329,0.0010202
16144.331,0.0010201
16147.333,0.0010198
16150.334,0.0010197
16153.329,0.0010198
16156.328,0.0010195
16159.335,0.0010192
16162.353,0.001019
16165.649,0.0010187
16168.610,0.0010184
16171.623,0.0010182
16175.047,0.0010179
16178.313,0.0010182
16181.313,0.0010193
16184.305,0.0010203
16187.299,0.0010208
16190.351,0.0010211
16193.297,0.0010216
16196.402,0.0010222
16199.644,0.0010222
16202.642,0.0010219
16205.644,0.0010217
16208.645,0.0010217
16211.654,0.0010218
16214.645,0.0010216
16217.645,0.0010213
16220.649,0.0010214
16223.645,0.0010211
16226.643,0.0010206
16229.680,0.0010205
16232.646,0.0010203
16236.048,0.0010202
16239.047,0.0010201
16242.303,0.0010201
16245.308,0.0010201
16248.305,0.0010198
16251.307,0.0010197
16254.328,0.0010198
16257.649,0.0010192
16260.643,0.0010193
16263.643,0.0010191
16266.652,0.0010191
16269.644,0.0010192
16272.646,0.0010189
16275.622,0.001019
16278.644,0.0010187
16281.643,0.0010189
16284.617,0.00102
16287.644,0.0010209
16290.643,0.0010217
16294.011,0.0010224
16297.308,0.0010227
16300.322,0.0010232
16303.613,0.0010235
16306.604,0.0010235
16309.650,0.0010235
16312.645,0.0010238
16315.620,0.0010233
16318.621,0.0010233
16321.618,0.0010233
16324.645,0.0010235
16327.644,0.0010233
16330.617,0.0010229
16333.619,0.0010229
16336.625,0.001023
16339.624,0.0010228
16342.617,0.0010225
16345.642,0.0010223
16348.993,0.0010223
16351.956,0.001022
16355.313,0.001022
16358.303,0.0010222
16361.303,0.0010217
16364.274,0.0010214
16367.304,0.0010219
16370.304,0.0010217
16373.308,0.0010219
16376.305,0.0010213
16379.250,0.0010212
16382.961,0.0010208
16385.956,0.0010208
16388.957,0.0010205
16391.952,0.0010201
16394.925,0.0010202
16397.960,0.0010201
16400.957,0.0010195
16403.940,0.0010195
16406.956,0.0010202
16409.957,0.0010212
16412.955,0.001022
16415.957,0.0010222
16418.961,0.0010223
16421.958,0.0010228
16424.960,0.0010232
16427.907,0.0010232
16430.961,0.001023
16433.961,0.001023
16436.956,0.0010228
16439.934,0.0010229
16442.926,0.0010223
16445.970,0.0010222
16448.930,0.00084598
16451.936,0.00068464
16454.929,0.00056047
16457.897,0.0004628
16460.924,0.00038318
16463.925,0.00031876
16466.929,0.00026539
16469.929,0.00022195
16472.904,0.00018588
16475.934,0.00015644
16478.941,0.00013239
16482.276,0.0001103
16485.250,9.4352E-05
16488.253,8.0978E-05
16491.255,7.0181E-05
16494.250,6.0734E-05
16497.244,5.374E-05
16500.254,4.7237E-05
16503.253,4.2207E-05
16506.253,3.8158E-05
16509.254,3.4845E-05
16512.262,3.19E-05
16515.574,2.9078E-05
16518.560,2.7115E-05
16521.591,2.552E-05
16524.571,2.4171E-05
16527.565,2.3189E-05
16530.594,2.2576E-05
16533.892,2.1226E-05
16536.901,2.0858E-05
16539.903,1.9999E-05
16542.924,1.9631E-05
16545.944,1.8772E-05
16548.903,1.8895E-05
16551.900,1.8527E-05
16554.900,1.8281E-05
16557.903,1.7913E-05
16560.900,1.7913E-05
16563.904,1.7422E-05
16566.900,1.73E-05
16569.898,1.7054E-05
16572.903,1.6686E-05
16575.899,1.6809E-05
16578.908,1.6564E-05
16582.272,1.6318E-05
16585.562,1.6564E-05
16588.537,1.6441E-05
16591.560,1.6441E-05
16594.587,1.6318E-05
16597.563,1.6318E-05
16600.561,1.6073E-05
16603.565,1.6073E-05
16606.588,1.6073E-05
16609.563,1.595E-05
16612.509,1.6073E-05
16615.560,1.5582E-05
16618.561,1.595E-05
16621.561,1.595E-05
16624.560,1.5582E-05
16627.569,1.5705E-05
16630.562,1.5827E-05
16633.560,1.5705E-05
16636.566,1.5827E-05
16639.560,1.5705E-05
16642.561,1.5827E-05
16645.557,1.5459E-05
16648.902,1.5705E-05
16651.903,1.5091E-05
16654.924,1.5705E-05
16657.899,1.5705E-05
16660.873,1.5459E-05
16663.877,1.5582E-05
16666.877,1.5582E-05
16669.903,1.5582E-05
16672.929,1.5214E-05
16675.883,1.5705E-05
16678.910,1.5214E-05
16681.883,1.5459E-05
16684.877,1.5459E-05
16687.903,1.5214E-05
16690.903,1.5214E-05
16693.878,1.5337E-05
16696.876,1.5337E-05
16699.892,1.5459E-05
16702.909,1.5214E-05
16705.878,1.5459E-05
16708.879,1.5337E-05
16711.883,1.5337E-05
16714.885,1.5459E-05
16717.877,1.5582E-05
16720.871,1.5214E-05
16723.917,1.5091E-05
16726.855,1.5459E-05
16729.877,1.5091E-05
16732.887,1.5459E-05
16735.879,1.5337E-05
16738.885,1.5091E-05
16742.215,1.5459E-05
16745.243,1.5091E-05
16748.252,1.5091E-05
16751.249,1.4969E-05
16754.246,1.5091E-05
16856.582,1.4482E-05
16859.888,1.4507E-05
16862.911,1.4494E-05
16866.224,1.4482E-05
16869.222,1.4494E-05
16872.224,1.447E-05
16875.231,1.447E-05
16878.563,1.4507E-05
16881.876,1.4494E-05
16884.881,1.447E-05
16887.878,1.4482E-05
16890.879,1.4482E-05
16893.883,1.447E-05
16896.880,1.447E-05
16899.882,1.4494E-05
16902.878,1.4482E-05
16905.903,1.4457E-05
16908.877,1.447E-05
16911.877,1.447E-05
16914.875,1.4457E-05
16918.224,1.4457E-05
16921.224,1.4482E-05
16924.230,1.4482E-05
16927.193,1.447E-05
16930.225,1.4445E-05
16933.538,1.4494E-05
16936.538,1.447E-05
16939.515,1.4482E-05
16942.506,1.4519E-05
16945.539,1.4494E-05
16948.539,1.4507E-05
16951.540,1.4494E-05
16954.539,1.4507E-05
16957.543,1.4507E-05
16960.539,1.4494E-05
16963.543,1.4519E-05
16966.545,1.4532E-05
16969.542,1.4519E-05
16972.511,1.4519E-05
16975.531,1.4569E-05
16978.836,1.4532E-05
16981.868,1.4556E-05
16984.880,1.4519E-05
16987.889,1.4556E-05
16991.204,1.4581E-05
16994.216,1.4556E-05
16997.179,1.4556E-05
17000.190,1.4594E-05
17003.198,1.4606E-05
17006.198,1.4581E-05
17009.198,1.4556E-05
17012.169,1.4569E-05
17015.198,1.4594E-05
17018.198,1.4606E-05
17021.200,1.4544E-05
17024.187,1.4581E-05
17027.195,1.4581E-05
17030.190,1.4581E-05
17033.192,1.4581E-05
17036.277,1.4569E-05
17039.532,1.4581E-05
17042.535,1.4618E-05
17045.509,1.4569E-05
17048.540,1.4594E-05
17051.486,1.4594E-05
17054.506,1.4581E-05
17057.540,1.4581E-05
17060.513,1.4581E-05
17063.512,1.4594E-05
17066.506,1.4618E-05
17069.544,1.4581E-05
17072.517,1.4594E-05
17075.516,1.4581E-05
17078.513,1.4594E-05
17081.513,1.4606E-05
17084.516,1.4618E-05
17087.515,1.4631E-05
17090.513,1.4643E-05
17093.521,1.4656E-05
17096.849,1.4618E-05
17099.858,1.4631E-05
17103.199,1.4618E-05
17106.513,1.4569E-05
17109.515,1.4631E-05
17112.507,1.4643E-05
17115.485,1.4618E-05
17118.513,1.4606E-05
17121.511,1.4631E-05
17124.513,1.4618E-05
17127.514,1.4594E-05
17130.513,1.4618E-05
17133.513,1.4631E-05
17136.516,1.4569E-05
17139.516,1.4581E-05
17142.513,1.4606E-05
17145.487,1.4581E-05
17148.482,1.4569E-05
17151.515,1.4594E-05
17154.513,1.4581E-05
17256.483,1.4488E-05
17259.803,1.4491E-05
17262.825,1.4493E-05
17265.826,1.4486E-05
17268.824,1.4478E-05
17271.823,1.4482E-05
17274.821,1.447E-05
17277.811,1.4462E-05
17280.822,1.4467E-05
17283.825,1.4454E-05
17286.819,1.4441E-05
17289.820,1.444E-05
17292.822,1.444E-05
17295.832,1.4422E-05
17298.820,1.4418E-05
17301.824,1.4423E-05
17304.819,1.4412E-05
17307.824,1.4408E-05
17310.821,1.4416E-05
17313.788,1.4412E-05
17316.820,1.4403E-05
17319.829,1.4412E-05
17322.822,1.4416E-05
17325.820,1.4405E-05
17328.789,1.4411E-05
17331.799,1.4418E-05
17334.819,1.4411E-05
17337.819,1.4408E-05
17340.821,1.4418E-05
17343.793,1.4421E-05
17346.794,1.4418E-05
17349.824,1.4428E-05
17352.793,1.4432E-05
17355.824,1.4423E-05
17358.826,1.4429E-05
17361.821,1.4441E-05
17364.800,1.4433E-05
17367.824,1.443E-05
17370.794,1.4439E-05
17373.798,1.4438E-05
17377.151,1.443E-05
17380.105,1.4438E-05
17383.452,1.4438E-05
17386.480,1.443E-05
17389.479,1.4439E-05
17392.480,1.4444E-05
17395.423,1.4438E-05
17398.483,1.4434E-05
17401.488,1.4446E-05
17404.485,1.444E-05
17407.483,1.444E-05
17410.485,1.445E-05
17413.486,1.4446E-05
17416.462,1.4438E-05
17419.467,1.444E-05
17422.458,1.4444E-05
17425.458,1.4434E-05
17428.427,1.4429E-05
17431.457,1.4434E-05
17434.457,1.4423E-05
17437.803,1.4413E-05
17440.798,1.4413E-05
17443.766,1.4409E-05
17446.797,1.4393E-05
17449.798,1.4396E-05
17452.798,1.4401E-05
17455.805,1.4664E-05
17458.773,1.8485E-05
17461.779,2.6599E-05
17464.774,3.2989E-05
17467.778,3.8172E-05
17470.772,4.2415E-05
17473.778,4.5889E-05
17476.774,4.8749E-05
17479.773,5.1096E-05
17482.779,5.3025E-05
17485.773,5.4601E-05
17687.448,0.0010347
17690.437,0.0010332
17693.432,0.0010315
17696.411,0.0010299
17699.415,0.001029
17702.407,0.0010283
17705.402,0.001027
17708.397,0.0010263
17711.409,0.0010245
17714.405,0.001024
17717.435,0.0010233
17720.431,0.001024
17723.418,0.001025
17726.435,0.0010251
17729.421,0.0010256
17732.432,0.0010256
17735.409,0.001025
17738.407,0.001025
17741.405,0.001025
17744.375,0.0010246
17747.413,0.0010246
17750.405,0.0010244
17753.402,0.0010235
17756.406,0.0010233
17759.376,0.0010229
17762.446,0.0010227
17765.435,0.0010222
17768.405,0.001022
17771.418,0.0010213
17774.405,0.0010211
17777.404,0.0010208
17780.410,0.0010205
17783.407,0.0010201
17786.404,0.0010196
17789.405,0.0010195
17792.410,0.001019
17795.382,0.0010191
17798.405,0.0010187
17801.400,0.0010181
17804.376,0.001018
17807.430,0.0010176
17810.405,0.0010175
17813.405,0.0010171
17816.405,0.0010169
17819.418,0.001017
17822.712,0.0010165
17825.746,0.0010166
17828.688,0.0010162
17831.721,0.0010174
17834.725,0.0010181
17837.722,0.0010189
17840.720,0.001019
17843.729,0.0010193
17846.724,0.0010193
17849.720,0.0010193
17852.719,0.0010195
17855.686,0.001019
17858.721,0.0010192
17861.720,0.0010187
17864.720,0.001019
17868.038,0.0010187
17871.033,0.0010184
17874.074,0.0010181
17877.066,0.0010181
17880.066,0.001018
17883.077,0.0010178
17886.066,0.0010175
17889.067,0.0010171
17892.067,0.0010173
17895.068,0.0010171
17898.068,0.001017
17901.040,0.0010168
17904.068,0.0010165
17907.073,0.0010165
17910.069,0.0010163
17913.070,0.001016
17916.034,0.0010157
17919.066,0.0010169
17922.063,0.0010174
17925.066,0.0010184
17928.378,0.0010191
17931.386,0.0010193
17934.339,0.0010191
17937.338,0.0010191
17940.379,0.001019
17943.379,0.0010187
17946.382,0.0010189
17949.380,0.0010187
17952.379,0.0010185
17955.386,0.0010179
17958.383,0.0010178
17961.380,0.0010174
17964.340,0.0010165
17967.717,0.0010163
17970.720,0.0010158
17973.719,0.0010157
17976.720,0.0010153
17979.706,0.0010151
17982.693,0.0010151
17985.724,0.0010146
17989.035,0.0010143
17992.047,0.0010144
17995.041,0.0010138
17998.043,0.001014
18001.057,0.0010154
18004.041,0.0010164
18007.036,0.0010169
18010.048,0.0010171
18013.039,0.0010171
18016.040,0.0010169
18019.038,0.0010174
18022.042,0.0010175
18025.041,0.001017
18028.050,0.0010171
18031.048,0.0010165
18034.036,0.0010164
18037.040,0.0010163
18040.047,0.0010158
18043.008,0.0010157
18046.041,0.0010153
18049.357,0.0010148
18052.356,0.0010142
18055.380,0.0010142
18058.384,0.0010146
18061.356,0.001014
18064.379,0.0010141
18067.358,0.0010136
18070.353,0.0010133
18073.379,0.0010131
18076.381,0.0010126
18079.359,0.0010124
18082.344,0.0010127
18085.350,0.0010125
18088.346,0.0010127
18091.352,0.0010127
18094.346,0.0010125
18097.344,0.0010137
18100.344,0.0010144
18103.345,0.0010155
18106.341,0.0010158
18109.373,0.0010164
18112.346,0.0010166
18115.349,0.001017
18118.310,0.001017
18121.346,0.0010169
18124.348,0.0010169
18127.343,0.0010164
18130.344,0.0010159
18133.350,0.0010155
18136.346,0.0010154
18139.352,0.0010148
18142.345,0.0010144
18145.342,0.0010144
18148.345,0.0010137
18151.346,0.0010133
18154.342,0.0010135
18157.343,0.0010127
18160.345,0.0010131
18163.356,0.0010125
18166.310,0.0010127
18169.357,0.0010126
18172.356,0.0010135
18175.353,0.0010143
18178.353,0.0010152
18181.316,0.0010163
18184.352,0.0010166
18187.359,0.0010173
18190.351,0.0010174
18193.351,0.0010181
18196.352,0.0010176
18199.352,0.0010175
18202.352,0.0010176
18205.353,0.0010176
18208.357,0.0010175
18211.357,0.0010175
18214.353,0.0010173
18217.357,0.0010173
18220.356,0.0010168
18223.352,0.0010169
18226.330,0.0010168
18229.369,0.001016
18232.667,0.0010159
18235.677,0.0010157
18238.667,0.0010154
18241.668,0.0010149
18244.635,0.0010147
18247.635,0.0010146
18250.672,0.0010142
18253.670,0.0010138
18256.669,0.0010136
18259.714,0.0010135
18262.604,0.0010131
18265.668,0.0010126
18268.669,0.0010124
18271.675,0.0010127
18274.684,0.0010124
18277.668,0.0010128
18280.669,0.001014
18283.667,0.0010148
18287.144,0.0010157
18290.330,0.0010164
18293.329,0.0010164
18296.328,0.0010164
18299.335,0.0010168
18302.293,0.0010169
18305.329,0.0010169
18308.325,0.0010169
18311.326,0.0010171
18314.326,0.0010169
18317.327,0.0010165
18320.326,0.0010164
18323.330,0.0010162
18326.331,0.0010162
18329.326,0.0010159
18332.329,0.0010158
18335.332,0.0010157
18338.296,0.0010154
18341.327,0.0010149
18344.327,0.0010151
18347.304,0.0010147
18350.327,0.0010144
18353.329,0.001014
18356.324,0.0010137
18359.327,0.0010131
18362.312,0.0010122
18365.326,0.0010116
18368.327,0.0010117
18371.311,0.0010122
18374.331,0.001013
18377.327,0.0010133
18380.332,0.0010137
18383.330,0.0010136
18386.330,0.0010135
18389.326,0.0010135
18392.326,0.0010132
18395.241,0.0010131
18398.327,0.0010128
18401.327,0.0010128
18404.330,0.0010125
18407.642,0.0010122
18410.640,0.0010119
18413.642,0.0010121
18416.641,0.0010121
18419.652,0.001012
18422.642,0.0010119
18425.608,0.001012
18428.684,0.0010119
18431.640,0.0010119
18434.642,0.0010116
18437.646,0.0010116
18441.034,0.0010111
18444.036,0.0010111
18447.038,0.0010109
18450.035,0.0010106
18453.035,0.0010103
18456.041,0.00101
18459.035,0.0010097
18462.041,0.0010094
18465.300,0.0010093
18468.324,0.0010089
18471.295,0.0010094
18474.301,0.0010108
18477.295,0.0010115
18480.300,0.0010124
18483.310,0.0010128
18486.300,0.001013
18489.300,0.0010131
18492.282,0.0010132
18495.645,0.0010131
18499.044,0.0010128
18502.300,0.0010127
18505.300,0.0010125
18508.319,0.0010124
18511.637,0.0010119
18514.625,0.0010115
18517.606,0.0010111
18520.617,0.0010108
18523.620,0.0010103
18526.647,0.0010101
18529.646,0.0010103
18532.620,0.00101
18535.642,0.0010098
18538.616,0.0010098
18541.618,0.0010092
18544.612,0.0010092
18547.621,0.001009
18550.581,0.0010093
18553.616,0.0010093
18556.617,0.0010088
18559.616,0.0010086
18562.619,0.0010084
18565.617,0.0010084
18568.617,0.0010082
18571.621,0.0010082
18574.618,0.0010079
18577.618,0.0010076
18580.621,0.0010077
18583.620,0.0010074
18586.582,0.001007
18589.617,0.001007
18592.623,0.0010066
18595.635,0.0010066
18598.616,0.0010065
18601.585,0.001006
18604.617,0.0010066
18607.617,0.0010076
18610.616,0.0010084
18613.616,0.0010087
18616.583,0.0010092
18619.621,0.0010093
18622.618,0.0010098
18625.616,0.0010095
18628.588,0.0010093
18631.621,0.0010094
18634.616,0.0010094
18637.617,0.0010093
18640.623,0.0010092
18643.600,0.0010087
18646.617,0.0010088
18649.622,0.0010087
18652.607,0.0010086
18655.606,0.0010087
18658.608,0.0010083
18661.617,0.0010081
18664.617,0.0010076
18667.599,0.0010074
18670.617,0.001007
18673.616,0.001007
18676.613,0.0010065
18679.586,0.0010065
18682.596,0.001006
18685.594,0.001006
18688.585,0.001006
18691.573,0.0010073
18694.566,0.0010082
18697.625,0.0010087
18700.599,0.0010098
18703.594,0.0010101
18706.670,0.00101
18709.920,0.0010103
18712.953,0.0010103
18715.932,0.0010098
18718.927,0.0010099
18721.926,0.0010097
18724.895,0.0010092
18727.927,0.0010088
18730.927,0.0010087
18733.953,0.0010083
18736.954,0.0010078
18739.932,0.0010076
18742.926,0.0010072
18745.925,0.0010066
18748.925,0.0010067
18751.931,0.001006
18754.926,0.001006
18757.929,0.0010052
18760.932,0.001005
18763.932,0.0010046
18767.044,0.0010044
18770.275,0.0010044
18773.248,0.001004
18776.248,0.001004
18779.252,0.001004
18782.586,0.0010051
18785.584,0.0010059
18788.556,0.0010067
18791.590,0.0010073
18794.594,0.0010078
18797.593,0.0010083
18800.589,0.0010086
18803.563,0.0010087
18806.596,0.0010089
18809.588,0.0010086
18812.587,0.0010083
18815.589,0.0010086
18818.592,0.0010084
18821.589,0.0010083
18824.589,0.0010081
18827.932,0.0010072
18830.927,0.0010074
18833.929,0.0010073
18836.932,0.0010067
18839.927,0.0010063
18842.927,0.0010065
18845.922,0.0010063
18848.928,0.0010065
18851.930,0.0010063
18854.927,0.0010061
18857.927,0.001006
18860.927,0.0010059
18863.927,0.0010056
18866.925,0.0010055
18869.927,0.0010068
18872.932,0.0010078
18875.906,0.0010086
18878.926,0.0010092
18881.902,0.0010094
18884.932,0.0010098
18888.247,0.0010098
18891.253,0.00101
18894.248,0.0010099
18897.252,0.0010099
18900.565,0.00101
18903.569,0.0010098
18906.564,0.0010101
18909.565,0.001009
18912.566,0.0010092
18915.568,0.0010092
18918.562,0.0010097
18921.563,0.001009
18924.533,0.0010088
18927.563,0.0010087
18930.563,0.0010084
18933.562,0.0010081
18936.562,0.0010079
18939.567,0.0010076
18942.563,0.0010078
18945.577,0.0010074
18948.889,0.0010071
18951.877,0.001007
18954.837,0.0010066
18957.912,0.0010063
18960.905,0.0010063
18963.922,0.0010063
18966.907,0.0010062
18969.902,0.0010057
18972.900,0.0010054
18975.885,0.0010063
18978.900,0.0010074
18981.900,0.0010083
18984.900,0.0010093
18987.851,0.0010094
18990.903,0.0010097
18993.903,0.0010099
18996.903,0.00101
18999.903,0.0010101
19002.896,0.0010101
19005.891,0.0010101
19009.184,0.0010103
19012.261,0.0010103
19015.196,0.0010101
19018.194,0.0010101
19021.195,0.0010098
19024.196,0.0010098
19027.199,0.0010097
19030.192,0.0010095
19033.194,0.0010094
19036.194,0.001009
19039.194,0.0010093
19042.190,0.0010089
19045.189,0.0010092
19048.536,0.0010089
19051.510,0.0010088
19054.505,0.0010087
19057.506,0.0010086
19060.510,0.0010083
19063.506,0.0010087
19066.507,0.0010084
19069.512,0.0010084
19072.507,0.0010079
19075.512,0.0010081
19078.510,0.0010074
19081.501,0.0010077
19084.526,0.0010078
19087.482,0.0010074
19090.474,0.0010073
19093.524,0.001007
19096.528,0.0010072
19099.513,0.0010068
19102.546,0.0010067
19105.536,0.0010066
19108.510,0.0010062
19111.505,0.001006
19114.507,0.001006
19117.506,0.001007
19120.509,0.0010081
19123.502,0.0010088
19126.508,0.0010094
19129.504,0.0010098
19132.527,0.00101
19135.500,0.0010103
19138.508,0.0010103
19141.505,0.0010104
19144.544,0.0010101
19147.509,0.0010103
19150.809,0.0010101
19153.838,0.0010097
19156.838,0.0010098
19159.838,0.0010093
19162.836,0.0010093
19165.869,0.001009
19168.838,0.001009
19171.843,0.0010088
19174.838,0.0010087
19177.841,0.0010087
19180.844,0.0010084
19183.837,0.0010081
19187.033,0.0010083
19190.161,0.0010078
19193.178,0.0010078
19196.181,0.0010073
19199.166,0.0010073
19202.163,0.001007
19205.160,0.0010071
19208.158,0.0010072
19211.168,0.0010071
19214.160,0.0010068
19217.214,0.0010068
19220.159,0.0010067
19223.159,0.0010063
19226.159,0.0010065
19229.161,0.0010063
19232.159,0.001006
19235.163,0.0010076
19238.159,0.0010081
19241.172,0.001009
19244.137,0.0010093
19247.162,0.0010097
19250.159,0.0010098
19253.160,0.00101
19256.132,0.00101
19259.138,0.0010099
19262.157,0.0010103
19265.133,0.00101
19268.132,0.0010098
19271.159,0.0010095
19274.133,0.0010095
19277.132,0.0010094
19280.133,0.0010093
19283.138,0.001009
19286.135,0.0010089
19289.137,0.0010092
19292.137,0.0010088
19295.134,0.0010088
19298.137,0.0010086
19301.141,0.0010082
19304.138,0.0010079
19307.143,0.0010078
19310.188,0.0010073
19313.524,0.0010071
19316.881,0.001007
19320.195,0.0010087
19323.543,0.0010098
19326.881,0.0010103
19330.197,0.0010109
19333.577,0.0010117
19336.876,0.0010119
19340.163,0.0010122
19343.153,0.001012
19346.150,0.001012
19349.153,0.0010119
19352.187,0.001012
19355.163,0.0010121
19358.155,0.001012
19361.158,0.0010121
19364.153,0.0010116
19367.177,0.0010115
19370.148,0.0010119
19373.150,0.0010113
19376.141,0.001011
19379.145,0.0010106
19382.137,0.0010104
19385.136,0.0010105
19388.135,0.0010104
19391.133,0.0010098
19394.132,0.0010097
19397.135,0.001009
19400.134,0.0010084
19403.115,0.0010084
19406.133,0.0010079
19409.132,0.0010076
19412.105,0.0010065
19415.133,0.0010062
19418.107,0.0010065
19421.108,0.0010059
19424.108,0.0010056
19427.112,0.0010049
19430.137,0.001005
19433.109,0.001005
19436.132,0.0010046
19439.139,0.0010045
19442.444,0.0010044
19445.416,0.0010052
19448.444,0.0010068
19451.458,0.0010078
19454.445,0.0010082
19457.447,0.0010089
19460.422,0.00099187
19463.449,0.00078328
19466.421,0.00063728
19469.422,0.00052403
19472.420,0.00043299
19475.428,0.00035876
19478.394,0.00029876
19481.420,0.00024882
19484.416,0.00020834
19487.475,0.00017496
19490.399,0.00014736
19493.391,0.00012478
19496.456,0.00010601
19499.434,9.1039E-05
19502.418,7.8034E-05
19505.419,6.7605E-05
19508.465,5.9507E-05
19511.767,5.1409E-05
19514.764,4.5397E-05
19517.766,4.098E-05
19520.765,3.6931E-05
19523.769,3.3864E-05
19526.766,3.1164E-05
19529.795,2.8833E-05
19532.766,2.687E-05
19535.766,2.552E-05
19538.764,2.4171E-05
19541.794,2.3189E-05
19544.790,2.1839E-05
19548.084,2.1349E-05
19551.089,2.0367E-05
19554.086,1.9876E-05
19557.084,1.9508E-05
19560.087,1.9017E-05
19563.088,1.8527E-05
19566.116,1.8281E-05
19569.088,1.8281E-05
19572.084,1.8036E-05
19575.085,1.7668E-05
19578.108,1.779E-05
19581.088,1.7177E-05
19584.085,1.73E-05
19587.100,1.6809E-05
19590.088,1.6932E-05
19593.087,1.6686E-05
19596.086,1.6564E-05
19599.090,1.6564E-05
19602.087,1.6318E-05
19605.085,1.6195E-05
19608.090,1.6441E-05
19611.084,1.6564E-05
19614.073,1.6195E-05
19617.066,1.6318E-05
19620.055,1.6441E-05
19623.056,1.6073E-05
19626.096,1.6195E-05
19629.105,1.595E-05
19632.090,1.5705E-05
19635.170,1.595E-05
19638.425,1.595E-05
19641.423,1.5827E-05
19644.423,1.5705E-05
19647.425,1.5582E-05
19650.397,1.5827E-05
19653.399,1.5459E-05
19656.397,1.5582E-05
19659.406,1.595E-05
19662.399,1.5459E-05
19665.397,1.5459E-05
19668.397,1.5705E-05
19671.397,1.5827E-05
19674.402,1.5337E-05
19677.399,1.5459E-05
19680.423,1.5091E-05
19683.406,1.5459E-05
19686.453,1.5214E-05
19689.397,1.5459E-05
19692.423,1.5214E-05
19695.402,1.5459E-05
19698.427,1.5337E-05
19701.400,1.5705E-05
19704.427,1.4969E-05
19707.436,1.5337E-05
19710.424,1.5214E-05
19713.423,1.5214E-05
19716.427,1.5091E-05
19719.426,1.5091E-05
19722.400,1.5337E-05
19725.424,1.4969E-05
19728.423,1.5091E-05
19731.379,1.5337E-05
19734.398,1.5337E-05
19737.397,1.5337E-05
19740.400,1.5337E-05
19743.395,1.5337E-05
19746.454,1.5091E-05
19749.431,1.5337E-05
19752.426,1.5091E-05
19755.403,1.5091E-05
19758.423,1.5091E-05
19761.426,1.5091E-05
19764.427,1.5091E-05
19767.423,1.4969E-05
19870.075,1.4433E-05
19873.059,1.442E-05
19876.059,1.4346E-05
19879.060,1.4395E-05
19882.061,1.4395E-05
19885.089,1.4408E-05
19888.059,1.4395E-05
19891.064,1.442E-05
19894.059,1.4433E-05
19897.059,1.4371E-05
19900.059,1.442E-05
19903.060,1.4457E-05
19906.059,1.4395E-05
19909.061,1.4371E-05
19912.063,1.4395E-05
19915.063,1.442E-05
19918.061,1.4383E-05
19921.057,1.4383E-05
19924.059,1.4383E-05
19927.061,1.4346E-05
19930.057,1.4395E-05
19933.057,1.4383E-05
19936.059,1.4371E-05
19939.064,1.4383E-05
19942.062,1.4395E-05
19945.026,1.4346E-05
19948.057,1.4346E-05
19951.059,1.4371E-05
19954.059,1.4333E-05
19957.061,1.4321E-05
19960.062,1.4371E-05
19963.063,1.4346E-05
19966.061,1.4333E-05
19969.059,1.4321E-05
19972.058,1.4346E-05
19975.033,1.4284E-05
19978.099,1.4321E-05
19981.377,1.4358E-05
19984.373,1.4321E-05
19987.379,1.4333E-05
19990.371,1.4333E-05
19993.376,1.4309E-05
19996.371,1.4284E-05
19999.371,1.4321E-05
20002.373,1.4333E-05
20005.370,1.4321E-05
20008.371,1.4309E-05
20011.362,1.4346E-05
20014.373,1.4346E-05
20017.371,1.4346E-05
20020.405,1.4333E-05
20023.371,1.4346E-05
20026.371,1.4358E-05
20029.400,1.4333E-05
20032.715,1.4346E-05
20035.715,1.4358E-05
20038.712,1.4346E-05
20041.739,1.4383E-05
20044.686,1.4358E-05
20047.712,1.4358E-05
20050.714,1.4346E-05
20053.713,1.4371E-05
20056.713,1.4333E-05
20059.718,1.4358E-05
20062.711,1.4371E-05
20065.713,1.4383E-05
20068.715,1.4358E-05
20071.713,1.4383E-05
20074.711,1.4371E-05
20077.712,1.4371E-05
20080.715,1.4408E-05
20083.718,1.4395E-05
20086.712,1.4358E-05
20089.713,1.4371E-05
20092.712,1.4395E-05
20095.711,1.4358E-05
20098.687,1.4346E-05
20101.712,1.4358E-05
20104.715,1.4346E-05
20107.690,1.4371E-05
20110.686,1.4371E-05
20113.713,1.4358E-05
20116.690,1.4346E-05
20119.717,1.4371E-05
20122.689,1.4309E-05
20125.706,1.4321E-05
20128.734,1.4358E-05
20131.691,1.4346E-05
20134.684,1.4383E-05
20137.700,1.4346E-05
20140.668,1.4346E-05
20143.713,1.4358E-05
20146.658,1.4346E-05
20149.712,1.4346E-05
20152.688,1.4358E-05
20155.694,1.4333E-05
20158.688,1.4321E-05
20161.691,1.4371E-05
20164.685,1.4333E-05
20167.750,1.4333E-05
20270.024,1.4296E-05
20273.008,1.4294E-05
20276.006,1.4283E-05
20279.043,1.4286E-05
20282.009,1.4287E-05
20285.006,1.4275E-05
20288.006,1.4269E-05
20291.042,1.4268E-05
20294.005,1.4259E-05
20297.007,1.4251E-05
20300.009,1.4253E-05
20303.007,1.4251E-05
20306.008,1.4237E-05
20309.006,1.4236E-05
20312.008,1.4237E-05
20315.010,1.4227E-05
20318.007,1.4223E-05
20321.008,1.4232E-05
20324.007,1.4226E-05
20327.005,1.4222E-05
20330.009,1.4234E-05
20333.037,1.4236E-05
20336.006,1.4233E-05
20339.011,1.4234E-05
20342.005,1.4242E-05
20345.028,1.4237E-05
20348.009,1.4237E-05
20351.008,1.4253E-05
20354.005,1.4248E-05
20357.005,1.4247E-05
20360.010,1.4259E-05
20363.005,1.4265E-05
20366.009,1.426E-05
20369.011,1.4273E-05
20372.017,1.428E-05
20375.006,1.4278E-05
20378.002,1.4283E-05
20381.008,1.4295E-05
20384.011,1.4294E-05
20387.014,1.4287E-05
20390.319,1.4307E-05
20393.321,1.4299E-05
20396.322,1.4295E-05
20399.318,1.4303E-05
20402.318,1.431E-05
20405.322,1.4299E-05
20408.318,1.4303E-05
20411.320,1.431E-05
20414.320,1.43E-05
20417.317,1.4297E-05
20420.319,1.4306E-05
20423.321,1.4296E-05
20426.318,1.429E-05
20429.349,1.4294E-05
20432.320,1.4292E-05
20435.296,1.428E-05
20438.320,1.428E-05
20441.316,1.4287E-05
20444.314,1.4278E-05
20447.313,1.4269E-05
20450.312,1.4276E-05
20453.317,1.4274E-05
20456.288,1.4264E-05
20459.293,1.4268E-05
20462.314,1.4267E-05
20465.287,1.4286E-05
20468.288,1.482E-05
20471.288,2.1148E-05
20474.288,2.8657E-05
20477.290,3.4652E-05
20480.287,3.9524E-05
20483.292,4.3525E-05
20486.288,4.6804E-05
20489.262,4.9497E-05
20492.268,5.1713E-05
20495.286,5.3523E-05
20699.022,0.0010115
20701.919,0.0010099
20705.007,0.0010082
20707.925,0.0010065
20711.006,0.0010054
20713.921,0.001004
20716.919,0.0010032
20719.919,0.0010022
20722.924,0.0010012
20726.006,0.0010008
20728.917,0.0010002
20731.898,0.00099935
20734.920,0.0010001
20737.919,0.0010006
20740.922,0.0010011
20743.924,0.0010011
20746.920,0.0010013
20749.910,0.0010009
20752.921,0.0010008
20755.926,0.0010005
20758.917,0.0010007
20761.919,0.0010005
20764.917,0.0010003
20767.898,0.00099984
20770.896,0.00099959
20773.894,0.0009991
20776.895,0.00099898
20779.898,0.00099849
20782.895,0.00099812
20785.897,0.00099763
20788.897,0.0009969
20791.895,0.00099677
20794.940,0.00099677
20797.892,0.00099616
20800.895,0.00099591
20803.891,0.00099555
20806.882,0.00099567
20809.880,0.00099493
20812.885,0.00099506
20815.861,0.00099604
20818.902,0.00099665
20821.900,0.00099739
20824.903,0.00099788
20827.900,0.00099812
20830.890,0.00099788
20833.900,0.00099837
20836.895,0.00099812
20839.893,0.000998
20842.893,0.00099788
20845.896,0.000998
20848.893,0.00099788
20851.872,0.00099775
20854.893,0.00099726
20857.964,0.00099714
20861.183,0.00099714
20864.214,0.00099677
20867.221,0.00099702
20870.218,0.00099702
20873.214,0.0009964
20876.218,0.00099616
20879.243,0.00099604
20882.214,0.00099591
20885.213,0.00099555
20888.216,0.00099542
20891.219,0.00099481
20894.214,0.00099444
20897.249,0.00099444
20900.214,0.00099407
20903.217,0.00099444
20906.214,0.00099518
20909.215,0.00099616
20912.213,0.0009964
20915.221,0.00099702
20918.216,0.00099739
20921.213,0.00099763
20924.214,0.00099726
20927.215,0.00099714
20930.214,0.00099739
20933.215,0.00099739
20936.216,0.00099702
20939.193,0.00099714
20942.215,0.0009969
20945.186,0.0009964
20948.214,0.00099653
20951.214,0.00099653
20954.217,0.00099579
20957.186,0.0009964
20960.214,0.00099616
20963.193,0.00099555
20966.188,0.00099518
20969.186,0.00099555
20972.214,0.0009969
20975.215,0.00099763
20978.206,0.00099837
20981.214,0.00099861
20984.186,0.0009991
20987.193,0.00099898
20990.191,0.00099874
20993.187,0.00099861
20996.186,0.00099861
20999.214,0.00099849
21002.191,0.00099849
21005.189,0.00099849
21008.190,0.00099837
21011.188,0.00099837
21014.187,0.00099861
21017.188,0.00099825
21020.190,0.000998
21023.187,0.00099788
21026.188,0.00099775
21029.187,0.00099775
21032.191,0.00099739
21035.196,0.00099726
21038.191,0.00099726
21041.188,0.0009969
21044.188,0.00099653
21047.198,0.00099677
21050.189,0.00099665
21053.189,0.00099604
21056.192,0.00099604
21059.196,0.00099555
21062.210,0.00099567
21065.189,0.00099518
21068.224,0.00099518
21071.179,0.00099628
21074.167,0.00099665
21077.208,0.00099726
21080.160,0.00099763
21083.239,0.000998
21086.192,0.000998
21089.194,0.000998
21092.192,0.00099788
21095.190,0.000998
21098.188,0.00099812
21101.188,0.000998
21104.243,0.00099788
21107.508,0.00099788
21110.530,0.00099788
21113.503,0.000998
21116.532,0.00099788
21119.506,0.00099751
21122.527,0.00099775
21125.557,0.00099788
21128.535,0.00099739
21131.508,0.00099702
21134.531,0.00099726
21137.502,0.0009969
21140.505,0.00099604
21143.532,0.00099567
21146.505,0.00099604
21149.505,0.00099555
21152.504,0.00099518
21155.507,0.00099481
21158.507,0.00099444
21161.502,0.00099456
21164.505,0.0009942
21167.501,0.0009953
21170.505,0.0009964
21173.501,0.00099702
21176.503,0.00099775
21179.506,0.00099837
21182.503,0.00099788
21185.502,0.000998
21188.503,0.00099812
21191.502,0.00099812
21194.502,0.00099825
21197.505,0.00099763
21200.502,0.00099775
21203.507,0.00099763
21206.505,0.00099751
21209.535,0.00099714
21212.501,0.00099702
21215.502,0.00099702
21218.505,0.00099653
21221.503,0.00099616
21224.503,0.00099604
21227.508,0.00099579
21230.534,0.00099591
21233.506,0.0009953
21236.503,0.00099493
21239.503,0.00099506
21242.502,0.00099481
21245.504,0.00099469
21248.502,0.00099444
21251.538,0.00099407
21254.505,0.00099395
21257.507,0.00099358
21260.503,0.00099383
21263.476,0.00099334
21266.538,0.00099321
21269.479,0.00099272
21272.512,0.00099346
21275.483,0.00099444
21278.480,0.00099555
21281.481,0.00099616
21284.476,0.00099628
21287.502,0.00099665
21290.502,0.0009969
21293.507,0.00099726
21296.475,0.0009969
21299.481,0.00099677
21302.507,0.00099714
21305.476,0.0009969
21308.504,0.00099653
21311.446,0.00099665
21314.505,0.00099628
21317.504,0.0009964
21320.480,0.00099604
21323.555,0.00099567
21326.478,0.00099506
21329.482,0.00099518
21332.477,0.00099481
21335.468,0.00099481
21338.461,0.00099444
21341.452,0.00099407
21344.479,0.00099383
21347.823,0.00099358
21350.814,0.00099321
21353.815,0.00099383
21356.815,0.00099297
21359.817,0.00099297
21362.845,0.00099285
21365.814,0.0009926
21368.815,0.00099211
21371.800,0.00099223
21374.814,0.00099309
21377.813,0.00099432
21381.138,0.00099542
21384.137,0.00099604
21387.140,0.00099653
21390.135,0.00099665
21393.140,0.0009969
21396.165,0.0009969
21399.136,0.00099677
21402.137,0.00099677
21405.135,0.00099726
21408.135,0.0009969
21411.140,0.00099653
21414.135,0.0009964
21417.134,0.00099616
21420.138,0.00099628
21423.135,0.00099579
21426.135,0.00099555
21429.136,0.00099567
21432.138,0.0009953
21435.144,0.00099493
21438.137,0.00099481
21441.118,0.00099395
21444.133,0.0009942
21447.132,0.00099407
21450.134,0.00099383
21453.132,0.00099407
21456.111,0.00099334
21459.135,0.00099383
21462.126,0.00099334
21465.118,0.00099297
21468.145,0.00099309
21471.104,0.00099272
21474.136,0.0009926
21477.086,0.00099272
21480.078,0.00099272
21483.115,0.00099383
21486.108,0.00099469
21489.130,0.00099542
21492.131,0.00099591
21495.104,0.00099628
21498.104,0.00099677
21501.138,0.00099677
21504.097,0.0009969
21507.109,0.00099726
21510.104,0.00099726
21513.106,0.00099726
21516.112,0.00099739
21519.104,0.00099702
21522.148,0.00099702
21525.103,0.00099653
21528.110,0.00099591
21531.112,0.00099579
21534.105,0.0009953
21537.107,0.00099518
21540.104,0.00099518
21543.140,0.00099469
21546.104,0.00099469
21549.104,0.00099432
21552.097,0.00099444
21555.099,0.00099432
21558.093,0.00099383
21561.142,0.00099407
21564.127,0.00099371
21567.093,0.00099321
21570.093,0.00099321
21573.092,0.00099297
21576.093,0.0009926
21579.134,0.00099223
21582.093,0.00099248
21585.125,0.00099236
21588.094,0.00099346
21591.097,0.00099432
21594.093,0.00099506
21597.093,0.00099579
21600.095,0.00099616
21603.109,0.00099653
21606.135,0.00099653
21609.107,0.0009969
21612.108,0.00099665
21615.104,0.00099714
21618.104,0.00099702
21621.104,0.00099665
21624.104,0.00099653
21627.114,0.00099677
21630.105,0.00099677
21633.104,0.0009969
21636.104,0.00099628
21639.108,0.00099628
21642.078,0.00099591
21645.150,0.00099579
21648.138,0.00099542
21651.083,0.00099555
21654.105,0.00099542
21657.079,0.0009953
21660.077,0.00099456
21663.104,0.00099432
21666.102,0.00099407
21669.108,0.00099371
21672.078,0.00099358
21675.088,0.0009942
21678.156,0.0009953
21681.078,0.00099579
21684.078,0.00099653
21687.079,0.00099677
21690.112,0.00099775
21693.082,0.00099739
21696.078,0.00099751
21699.083,0.00099763
21702.079,0.00099763
21705.078,0.00099763
21708.077,0.00099788
21711.101,0.00099775
21714.078,0.00099775
21717.078,0.00099763
21720.078,0.00099739
21723.150,0.00099763
21726.079,0.00099739
21729.078,0.0009969
21732.111,0.0009969
21735.078,0.00099677
21738.079,0.00099677
21741.081,0.00099653
21744.078,0.00099616
21747.083,0.0009964
21750.079,0.00099616
21753.108,0.00099555
21756.082,0.00099555
21759.080,0.00099555
21762.076,0.00099493
21765.078,0.0009953
21768.082,0.00099506
21771.084,0.00099456
21774.108,0.00099469
21777.077,0.00099444
21780.083,0.0009942
21783.083,0.00099444
21786.082,0.0009942
21789.086,0.00099358
21792.078,0.00099346
21795.091,0.00099407
21798.084,0.00099493
21801.082,0.00099567
21804.082,0.00099653
21807.051,0.00099665
21810.048,0.00099677
21813.078,0.00099677
21816.082,0.00099665
21819.085,0.0009969
21822.052,0.00099677
21825.078,0.00099653
21828.083,0.0009964
21831.052,0.00099653
21834.053,0.00099653
21837.081,0.00099665
21840.052,0.00099616
21843.057,0.00099591
21846.052,0.00099604
21849.052,0.00099579
21852.078,0.00099579
21855.052,0.00099518
21858.052,0.00099518
21861.056,0.00099506
21864.050,0.00099493
21867.057,0.00099444
21870.052,0.00099469
21873.052,0.0009942
21876.052,0.00099371
21879.058,0.00099395
21882.052,0.00099395
21885.052,0.00099358
21888.052,0.00099346
21891.057,0.00099321
21894.052,0.00099297
21897.052,0.00099297
21900.088,0.00099272
21903.052,0.00099236
21906.052,0.00099223
21909.054,0.00099211
21912.062,0.00099174
21915.059,0.00099187
21918.054,0.0009915
21921.052,0.00099137
21924.052,0.00099088
21927.052,0.00099039
21930.052,0.00099101
21933.053,0.00099187
21936.052,0.00099285
21939.057,0.00099297
21942.050,0.00099321
21945.050,0.00099309
21948.053,0.00099334
21951.052,0.00099297
21954.051,0.0009926
21957.055,0.00099223
21960.053,0.00099211
21963.033,0.00099187
21966.054,0.0009915
21969.052,0.00099174
21972.052,0.00099137
21975.053,0.00099113
21978.078,0.00099088
21981.026,0.00099039
21984.050,0.00099027
21987.031,0.00099052
21990.024,0.00099015
21993.052,0.00099027
21996.057,0.00099027
21999.027,0.00098978
22002.056,0.00098978
22005.026,0.00098953
22008.051,0.00098929
22011.062,0.00098929
22014.026,0.00098904
22017.026,0.00098892
22020.028,0.0009888
22023.026,0.00098867
22026.026,0.00098818
22029.024,0.00098843
22032.026,0.00098794
22035.035,0.00098794
22038.068,0.00098818
22041.032,0.00098769
22044.035,0.00098904
22047.031,0.00099015
22050.036,0.00099101
22053.031,0.00099137
22056.030,0.00099162
22059.038,0.00099162
22062.031,0.00099187
22065.031,0.00099174
22068.033,0.00099187
22071.031,0.00099125
22074.030,0.00099088
22077.033,0.00099076
22080.031,0.00099039
22083.034,0.00099052
22086.033,0.00098978
22089.032,0.00098978
22092.031,0.00098966
22095.029,0.00098892
22098.030,0.00098904
22101.032,0.0009888
22104.030,0.00098917
22107.037,0.00098892
22110.031,0.00098867
22113.029,0.00098831
22116.033,0.00098892
22119.031,0.00098818
22122.030,0.00098818
22125.036,0.00098806
22128.047,0.00098769
22131.035,0.00098757
22134.034,0.00098745
22137.033,0.00098745
22140.032,0.0009872
22143.055,0.00098634
22146.033,0.00098634
22149.011,0.00098573
22151.998,0.00098573
22155.029,0.00098512
22157.994,0.00098512
22161.029,0.0009845
22164.009,0.0009845
22166.977,0.00098499
22170.065,0.00098647
22173.007,0.00098671
22176.007,0.0009872
22179.042,0.00098769
22182.344,0.00098806
22185.342,0.00098806
22188.347,0.00098794
22191.369,0.00098782
22194.401,0.00098782
22197.684,0.00098745
22200.721,0.00098708
22203.689,0.00098696
22206.683,0.0009872
22209.686,0.00098683
22212.714,0.00098671
22215.683,0.00098659
22218.686,0.00098634
22221.684,0.0009861
22224.682,0.00098622
22227.709,0.00098622
22230.685,0.00098585
22233.714,0.00098598
22236.662,0.00098598
22239.683,0.00098585
22242.683,0.00098585
22245.660,0.00098573
22248.686,0.00098512
22251.665,0.00098499
22254.689,0.00098487
22257.687,0.00098487
22260.685,0.00098536
22263.663,0.0009861
22266.687,0.0009872
22269.660,0.00098782
22272.660,0.00098806
22275.663,0.00098806
22278.658,0.00098806
22281.667,0.00098806
22284.655,0.00098831
22287.645,0.00098818
22290.639,0.00098794
22293.633,0.00098806
22296.631,0.00098769
22299.689,0.00098733
22302.657,0.00098696
22305.658,0.00098696
22308.657,0.00098659
22311.658,0.00098622
22314.657,0.00098622
22317.660,0.00098585
22320.660,0.00098548
22323.662,0.00098536
22326.661,0.00098536
22329.660,0.00098487
22332.658,0.00098475
22335.657,0.00098499
22338.658,0.00098499
22341.662,0.00098487
22344.656,0.00098463
22347.664,0.00098475
22350.660,0.00098499
22353.658,0.00098487
22356.658,0.00098499
22359.660,0.00098622
22362.658,0.00098671
22365.657,0.00098708
22368.660,0.00098733
22371.662,0.00098769
22374.657,0.00098769
22377.695,0.00098757
22380.659,0.00098757
22383.657,0.00098745
22386.657,0.00098708
22389.661,0.00098659
22392.659,0.00098622
22395.637,0.00098585
22398.659,0.00098561
22401.657,0.00098512
22404.656,0.00098475
22407.659,0.0009845
22410.687,0.00098377
22413.656,0.00098389
22416.659,0.0009834
22419.636,0.00098279
22422.655,0.00098254
22425.661,0.00098193
22428.657,0.00098156
22431.634,0.00098021
22434.632,0.00098009
22437.661,0.00097947
22440.638,0.00097923
22443.636,0.00097886
22446.654,0.00097861
22449.626,0.00097812
22452.627,0.00097788
22455.628,0.00097763
22458.625,0.00097714
22461.627,0.00097739
22464.627,0.00097714
22467.635,0.0009769
22470.627,0.00097714
22473.625,0.00084034
22476.653,0.00067789
22479.629,0.00055532
22482.627,0.00045753
22485.627,0.00037876
22488.626,0.00031508
22491.632,0.0002622
22494.677,0.00021901
22497.626,0.00018355
22500.652,0.00015398
22503.626,0.00013018
22506.652,0.0001103
22509.628,9.3984E-05
22512.624,8.061E-05
22515.631,6.969E-05
22518.626,6.0611E-05
22521.624,5.3249E-05
22524.626,4.6992E-05
22527.646,4.1839E-05
22530.632,3.7912E-05
22533.631,3.4109E-05
22536.630,3.1164E-05
22539.636,2.8588E-05
22542.632,2.687E-05
22545.630,2.5029E-05
22548.632,2.368E-05
22551.632,2.2698E-05
22554.631,2.1594E-05
22557.628,2.0612E-05
22560.631,1.9876E-05
22563.637,1.9385E-05
22566.633,1.914E-05
22569.626,1.8404E-05
22572.631,1.7913E-05
22575.633,1.7668E-05
22578.630,1.7422E-05
22581.632,1.7177E-05
22584.629,1.6686E-05
22587.636,1.6564E-05
22590.632,1.6195E-05
22593.633,1.6441E-05
22596.633,1.595E-05
22599.631,1.6195E-05
22602.631,1.6073E-05
22605.628,1.5582E-05
22608.636,1.5827E-05
22611.606,1.5705E-05
22614.632,1.5582E-05
22617.659,1.5214E-05
22620.632,1.5337E-05
22623.655,1.5091E-05
22626.664,1.4723E-05
22629.661,1.5214E-05
22632.606,1.5582E-05
22635.636,1.4846E-05
22638.632,1.5091E-05
22641.684,1.5214E-05
22644.598,1.4969E-05
22647.657,1.4969E-05
22650.658,1.5091E-05
22653.658,1.4969E-05
22656.661,1.4723E-05
22659.637,1.4846E-05
22662.636,1.5214E-05
22665.634,1.4846E-05
22668.604,1.4846E-05
22671.645,1.4969E-05
22674.613,1.4846E-05
22677.629,1.4723E-05
22680.600,1.4478E-05
22683.640,1.4723E-05
22686.631,1.4846E-05
22689.632,1.46E-05
22692.631,1.4478E-05
22695.627,1.5091E-05
22698.632,1.4723E-05
22701.633,1.46E-05
22704.632,1.4723E-05
22707.644,1.5091E-05
22710.657,1.46E-05
22713.627,1.4723E-05
22716.631,1.4723E-05
22719.633,1.46E-05
22722.632,1.4355E-05
22725.631,1.4355E-05
22728.661,1.46E-05
22731.639,1.4723E-05
22734.665,1.46E-05
22737.631,1.4355E-05
22740.632,1.4355E-05
22743.631,1.4723E-05
22746.631,1.4355E-05
22749.635,1.4232E-05
22752.632,1.4355E-05
22755.666,1.4232E-05
22758.634,1.4355E-05
22761.629,1.4355E-05
22764.631,1.4355E-05
22767.633,1.411E-05
22770.630,1.4478E-05
22773.631,1.46E-05
22776.661,1.4478E-05
22779.635,1.4232E-05
22881.618,1.3541E-05
22884.607,1.3541E-05
22887.605,1.3553E-05
22890.610,1.3541E-05
22893.606,1.3528E-05
22896.604,1.3491E-05
22899.613,1.3528E-05
22902.603,1.3541E-05
22905.605,1.3541E-05
22908.607,1.3541E-05
22911.605,1.3603E-05
22914.605,1.3528E-05
22917.607,1.3578E-05
22920.605,1.3528E-05
22923.610,1.3516E-05
22926.603,1.3541E-05
22929.608,1.3565E-05
22932.603,1.3528E-05
22935.606,1.3541E-05
22938.605,1.3528E-05
22941.603,1.3553E-05
22944.620,1.3528E-05
22947.587,1.3541E-05
22950.597,1.3541E-05
22953.588,1.3541E-05
22956.628,1.3528E-05
22959.916,1.3541E-05
22963.006,1.3541E-05
22966.004,1.3516E-05
22968.917,1.3578E-05
22971.924,1.3565E-05
22975.005,1.3516E-05
22977.951,1.3541E-05
22980.917,1.3541E-05
22983.945,1.3541E-05
22986.916,1.3553E-05
22989.917,1.3528E-05
22992.919,1.3565E-05
22995.920,1.3541E-05
22998.917,1.3578E-05
23001.919,1.3578E-05
23004.947,1.3578E-05
23007.916,1.3541E-05
23010.921,1.3565E-05
23013.916,1.3603E-05
23016.916,1.3516E-05
23019.891,1.3528E-05
23022.919,1.3541E-05
23025.946,1.3528E-05
23028.947,1.3565E-05
23031.917,1.3553E-05
23034.944,1.3553E-05
23037.949,1.3516E-05
23040.919,1.3528E-05
23043.946,1.3541E-05
23046.920,1.3528E-05
23049.919,1.3528E-05
23052.918,1.3541E-05
23055.917,1.3528E-05
23058.919,1.3503E-05
23061.917,1.3503E-05
23064.917,1.3516E-05
23067.956,1.3503E-05
23071.238,1.3503E-05
23074.264,1.3491E-05
23077.261,1.3491E-05
23080.264,1.3491E-05
23083.270,1.3491E-05
23086.238,1.3516E-05
23089.238,1.3454E-05
23092.264,1.3491E-05
23095.272,1.3466E-05
23098.264,1.3479E-05
23101.238,1.3503E-05
23104.243,1.3491E-05
23107.243,1.3503E-05
23110.236,1.3479E-05
23113.274,1.3479E-05
23116.237,1.3479E-05
23119.238,1.3516E-05
23122.241,1.3541E-05
23125.238,1.3541E-05
23128.236,1.3553E-05
23131.245,1.3553E-05
23134.241,1.3541E-05
23137.238,1.3516E-05
23140.241,1.3541E-05
23143.264,1.3565E-05
23146.240,1.3565E-05
23149.237,1.3578E-05
23152.237,1.3565E-05
23155.242,1.359E-05
23158.238,1.3578E-05
23161.237,1.3565E-05
23164.237,1.3578E-05
23167.237,1.3528E-05
23170.240,1.3578E-05
23173.238,1.3565E-05
23176.238,1.3541E-05
23179.245,1.3578E-05
23281.570,1.3445E-05
23284.552,1.3441E-05
23287.585,1.3444E-05
23290.576,1.346E-05
23293.553,1.3455E-05
23296.555,1.3451E-05
23299.532,1.3461E-05
23302.556,1.3464E-05
23305.552,1.3455E-05
23308.555,1.346E-05
23311.553,1.3469E-05
23314.553,1.3456E-05
23317.555,1.3456E-05
23320.526,1.3464E-05
23323.532,1.3457E-05
23326.552,1.345E-05
23329.531,1.3453E-05
23332.526,1.345E-05
23335.553,1.3436E-05
23338.557,1.3435E-05
23341.856,1.3434E-05
23344.863,1.3424E-05
23347.868,1.342E-05
23350.865,1.3428E-05
23353.864,1.3416E-05
23356.866,1.3409E-05
23359.894,1.3419E-05
23362.864,1.3419E-05
23365.865,1.3404E-05
23368.867,1.3408E-05
23371.870,1.3414E-05
23374.868,1.3402E-05
23377.862,1.3405E-05
23380.865,1.3412E-05
23383.865,1.3407E-05
23386.864,1.3402E-05
23389.864,1.3405E-05
23392.864,1.3408E-05
23395.873,1.3394E-05
23398.864,1.3398E-05
23401.894,1.3404E-05
23404.866,1.3391E-05
23407.864,1.3386E-05
23410.937,1.3394E-05
23413.867,1.3388E-05
23416.864,1.3382E-05
23419.847,1.3392E-05
23422.900,1.3389E-05
23425.865,1.3378E-05
23429.560,1.3388E-05
23432.898,1.3391E-05
23435.895,1.3386E-05
23438.865,1.3392E-05
23441.889,1.3402E-05
23444.888,1.3395E-05
23447.890,1.3398E-05
23450.892,1.3409E-05
23453.863,1.3404E-05
23456.889,1.3403E-05
23459.872,1.3416E-05
23462.866,1.3418E-05
23465.892,1.3409E-05
23468.865,1.342E-05
23471.894,1.3428E-05
23474.868,1.342E-05
23477.864,1.3527E-05
23480.867,1.462E-05
23483.839,2.2994E-05
23486.868,3.0106E-05
23489.866,3.5822E-05
23492.843,4.0483E-05
23495.867,4.4306E-05
23498.847,4.7447E-05
23501.839,5.0023E-05
23504.840,5.2147E-05
23507.847,5.3876E-05
23711.492,0.00097984
23714.485,0.00097788
23717.481,0.00097641
23720.477,0.00097518
23723.457,0.00097432
23726.473,0.00097309
23729.476,0.00097248
23732.477,0.00097174
23735.476,0.00097064
23738.480,0.00097039
23741.479,0.00096953
23744.464,0.0009688
23747.487,0.00096855
23750.476,0.00096769
23753.446,0.00096769
23756.450,0.00096843
23759.477,0.00096892
23762.479,0.00096917
23765.481,0.00096917
23768.476,0.00096904
23771.489,0.00096892
23774.474,0.00096868
23777.457,0.00096843
23780.479,0.00096806
23783.476,0.00096794
23786.476,0.00096745
23789.477,0.00096794
23792.476,0.0009672
23795.462,0.00096659
23798.478,0.0009661
23801.482,0.00096634
23804.478,0.00096573
23807.476,0.00096573
23810.473,0.00096512
23813.791,0.00096512
23816.766,0.00096475
23819.797,0.00096463
23822.792,0.0009645
23825.791,0.00096438
23828.797,0.00096438
23831.786,0.00096401
23834.792,0.00096389
23837.791,0.00096377
23840.796,0.00096303
23843.796,0.00096266
23847.106,0.0009634
23850.139,0.00096438
23853.139,0.0009645
23856.137,0.00096499
23859.126,0.00096536
23862.105,0.00096536
23865.138,0.00096561
23868.113,0.00096549
23871.112,0.00096561
23874.143,0.00096536
23877.074,0.00096512
23880.117,0.00096512
23883.143,0.00096475
23886.142,0.00096463
23889.138,0.00096463
23892.138,0.00096438
23895.111,0.00096389
23898.139,0.00096401
23901.139,0.00096475
23904.137,0.00096573
23907.122,0.00096647
23910.105,0.00096671
23913.113,0.00096671
23916.082,0.0009672
23919.112,0.0009672
23922.143,0.00096745
23925.113,0.0009672
23928.137,0.0009672
23931.117,0.00096671
23934.113,0.00096708
23937.117,0.00096696
23940.116,0.00096696
23943.113,0.00096647
23946.113,0.00096622
23949.118,0.00096622
23952.138,0.00096585
23955.124,0.00096573
23958.080,0.00096549
23961.111,0.00096499
23964.114,0.00096475
23967.112,0.00096487
23970.112,0.0009645
23973.080,0.00096389
23976.117,0.00096365
23979.120,0.00096352
23982.115,0.0009634
23985.117,0.0009634
23988.116,0.00096352
23991.112,0.0009634
23994.142,0.00096303
23997.118,0.00096254
24000.112,0.00096291
24003.099,0.00096205
24006.086,0.0009623
24009.113,0.00096217
24012.425,0.00096156
24015.455,0.00096254
24018.451,0.00096352
24021.430,0.00096401
24024.425,0.00096414
24027.437,0.00096438
24030.392,0.00096487
24033.427,0.00096487
24036.368,0.00096512
24040.117,0.00096487
24043.092,0.00096463
24046.119,0.0009645
24049.086,0.00096426
24052.053,0.00096389
24055.113,0.00096352
24058.119,0.0009634
24061.146,0.00096328
24064.392,0.00096315
24067.504,0.00096303
24070.765,0.00096315
24073.765,0.00096279
24076.765,0.00096279
24079.765,0.00096205
24082.766,0.0009623
24085.770,0.00096279
24088.766,0.00096389
24091.742,0.00096463
24094.769,0.00096524
24097.769,0.00096573
24100.766,0.00096598
24103.766,0.00096647
24106.772,0.00096647
24109.740,0.00096622
24112.766,0.00096598
24115.745,0.00096622
24118.765,0.00096585
24121.765,0.00096585
24124.766,0.00096573
24127.802,0.00096549
24131.192,0.00096549
24134.424,0.00096475
24137.425,0.00096414
24140.435,0.00096389
24143.424,0.00096352
24146.391,0.00096315
24149.429,0.00096291
24152.425,0.00096242
24155.411,0.0009618
24158.429,0.00096119
24161.396,0.00096107
24164.424,0.00096058
24167.431,0.00096021
24170.430,0.00096009
24173.424,0.00095947
24176.423,0.00095947
24179.406,0.00095923
24182.426,0.00095874
24185.424,0.00095886
24188.398,0.00095825
24191.398,0.00095923
24194.460,0.00096021
24197.739,0.00096119
24200.739,0.00096144
24203.742,0.00096156
24206.739,0.00096193
24209.739,0.00096217
24212.744,0.00096242
24215.742,0.0009623
24218.739,0.00096242
24221.739,0.00096242
24224.708,0.00096205
24227.741,0.00096205
24230.740,0.0009618
24233.738,0.00096156
24236.740,0.00096119
24239.738,0.00096095
24242.739,0.00096082
24245.738,0.0009607
24248.739,0.00096046
24251.718,0.00096021
24254.740,0.00096009
24257.740,0.00095996
24260.722,0.00095972
24263.742,0.00095935
24266.739,0.00095923
24269.740,0.00095886
24272.745,0.00095874
24275.722,0.00095861
24278.741,0.00095825
24281.739,0.00095788
24284.739,0.00095776
24287.684,0.00095751
24290.739,0.00095825
24293.714,0.00095935
24296.740,0.00096009
24299.723,0.00096058
24302.720,0.00096144
24305.740,0.00096144
24308.737,0.0009618
24312.059,0.00096168
24315.070,0.0009618
24318.060,0.00096217
24321.060,0.00096193
24324.061,0.00096168
24327.032,0.00096131
24330.060,0.00096107
24333.064,0.00096107
24336.062,0.00096095
24339.065,0.0009607
24342.060,0.00096058
24345.063,0.00096033
24348.059,0.0009596
24351.064,0.00095947
24354.057,0.00095923
24357.060,0.00095874
24360.061,0.00095837
24363.070,0.00095763
24366.048,0.000958
24369.061,0.000958
24372.082,0.00095739
24375.031,0.00095665
24378.059,0.00095665
24381.031,0.00095751
24384.035,0.00095861
24387.067,0.00095935
24390.070,0.00095996
24393.034,0.00096009
24396.042,0.00096021
24399.038,0.00096082
24402.034,0.00096046
24405.060,0.00096046
24408.061,0.00096058
24411.034,0.0009607
24414.060,0.00096046
24417.061,0.00096033
24420.035,0.00096009
24423.034,0.00096009
24426.060,0.00096021
24429.027,0.00096021
24432.025,0.00095984
24435.039,0.00095972
24438.067,0.00095947
24441.057,0.00095911
24444.060,0.00095911
24447.038,0.00095898
24450.035,0.00095825
24453.029,0.00095825
24456.035,0.00095776
24459.029,0.00095739
24462.029,0.00095677
24465.033,0.00095628
24468.030,0.00095604
24471.031,0.0009553
24474.033,0.00095542
24477.000,0.00095481
24480.030,0.0009542
24483.028,0.00095371
24486.030,0.00095334
24489.028,0.00095371
24492.028,0.00095444
24495.032,0.00095542
24498.030,0.00095518
24501.032,0.00095592
24504.041,0.00095592
24507.034,0.00095592
24510.034,0.00095604
24513.043,0.00095542
24516.034,0.0009553
24519.034,0.0009553
24522.034,0.00095481
24525.035,0.00095444
24528.033,0.00095383
24531.039,0.00095322
24534.035,0.00095285
24537.034,0.00095248
24540.040,0.00095187
24543.037,0.0009515
24546.034,0.00095113
24549.037,0.00095076
24552.082,0.00095052
24555.355,0.0009499
24558.372,0.00094966
24561.344,0.00094892
24564.337,0.00094868
24567.340,0.00094904
24570.347,0.00094831
24573.347,0.00094819
24576.351,0.00094733
24579.350,0.00094696
24582.346,0.00094831
24585.354,0.0009488
24588.315,0.00094941
24591.347,0.00094966
24594.344,0.00095003
24597.352,0.00095003
24600.345,0.00095015
24603.356,0.00094978
24606.344,0.00094966
24609.346,0.00094954
24612.687,0.00094966
24615.656,0.00094929
24618.686,0.00094904
24621.661,0.00094954
24624.662,0.00094917
24627.664,0.00094892
24630.686,0.00094904
24633.693,0.00094904
24636.691,0.0009488
24639.666,0.00094868
24642.687,0.00094855
24645.693,0.00094855
24648.660,0.00094819
24651.679,0.00094806
24654.655,0.00094794
24657.661,0.0009472
24660.668,0.00094708
24663.616,0.00094659
24666.661,0.00094659
24669.667,0.00094622
24672.691,0.0009461
24675.665,0.0009461
24678.664,0.00094708
24681.662,0.00094769
24684.662,0.00094868
24687.665,0.00094929
24690.665,0.00094917
24693.649,0.00094954
24696.627,0.00094954
24699.667,0.00094941
24702.661,0.00094966
24705.660,0.00094941
24708.659,0.00094954
24711.662,0.00094929
24714.661,0.00094904
24717.662,0.0009488
24720.661,0.00094904
24723.666,0.00094917
24726.669,0.00094855
24729.663,0.00094855
24732.691,0.00094868
24735.666,0.00094855
24738.664,0.00094819
24741.662,0.00094831
24744.657,0.00094819
24747.671,0.00094819
24750.662,0.00094794
24753.662,0.00094806
24756.633,0.00094757
24759.659,0.00094769
24762.650,0.00094757
24765.644,0.00094769
24768.639,0.00094745
24771.633,0.00094708
24774.632,0.00094745
24777.651,0.00094696
24780.638,0.00094708
24783.666,0.00094671
24786.665,0.00094659
24789.661,0.00094635
24792.664,0.00094585
24795.657,0.00094659
24798.661,0.00094794
24801.660,0.00094831
24804.636,0.0009488
24807.635,0.00094954
24810.649,0.00094954
24813.656,0.00094929
24816.654,0.00094966
24819.635,0.00094929
24822.627,0.00094954
24825.649,0.00094954
24828.628,0.00094917
24831.623,0.00094917
24834.630,0.0009488
24837.627,0.00094855
24840.628,0.00094831
24843.598,0.00094831
24846.625,0.00094819
24849.630,0.00094806
24852.653,0.00094769
24855.626,0.00094757
24858.626,0.00094745
24861.629,0.00094757
24864.591,0.00094733
24867.635,0.00094696
24870.622,0.00094708
24873.628,0.0009472
24876.628,0.00094696
24879.622,0.00094647
24882.627,0.00094671
24885.628,0.00094647
24888.629,0.00094622
24891.640,0.0009461
24894.628,0.00094635
24897.630,0.00094585
24900.627,0.00094598
24903.626,0.00094573
24906.626,0.00094536
24909.635,0.00094585
24913.042,0.00094684
24916.033,0.00094794
24919.034,0.00094806
24922.033,0.00094855
24925.033,0.00094917
24928.033,0.00094917
24931.037,0.00094941
24934.035,0.00094966
24937.023,0.00094941
24940.039,0.00094941
24943.038,0.00094941
24946.034,0.00094929
24949.033,0.00094917
24952.039,0.00094929
24955.034,0.0009488
24958.033,0.0009488
24960.944,0.00094843
24964.034,0.00094855
24967.035,0.00094819
24970.033,0.00094831
24973.297,0.00094769
24976.265,0.00094769
24979.304,0.00094782
24982.294,0.00094769
24985.294,0.00094757
24988.298,0.00094745
24991.295,0.00094733
24994.311,0.0009472
24997.298,0.00094696
25000.296,0.00094647
25003.273,0.00094671
25006.294,0.00094684
25009.299,0.00094647
25012.293,0.0009461
25015.293,0.0009461
25018.291,0.00094585
25021.293,0.00094598
25024.262,0.00094585
25027.263,0.00094549
25030.294,0.00094524
25033.320,0.00094549
25036.264,0.00094524
25039.263,0.00094487
25042.294,0.00094438
25045.299,0.00094438
25048.296,0.00094389
25051.272,0.0009445
25054.269,0.00094512
25057.267,0.00094598
25060.238,0.0009461
25063.293,0.00094671
25066.267,0.00094635
25069.268,0.00094647
25072.265,0.00094647
25075.272,0.00094635
25078.234,0.00094659
25081.267,0.0009461
25084.268,0.00094585
25087.267,0.00094585
25090.267,0.00094598
25093.298,0.00094598
25096.268,0.00094585
25099.272,0.00094549
25102.270,0.00094585
25105.267,0.00094573
25108.269,0.00094598
25111.271,0.00094573
25114.267,0.00094585
25117.266,0.00094561
25120.274,0.00094573
25123.276,0.00094536
25126.270,0.00094536
25129.266,0.000945
25132.267,0.00094487
25135.267,0.00094438
25138.267,0.0009445
25141.268,0.00094438
25144.265,0.00094365
25147.282,0.0009434
25150.269,0.00094279
25153.298,0.00094254
25156.268,0.00094217
25159.272,0.00094168
25162.267,0.00094254
25165.234,0.00094303
25168.238,0.00094377
25171.250,0.00094377
25174.267,0.00094377
25177.351,0.00094377
25180.588,0.00094328
25183.592,0.00094291
25186.586,0.00094279
25189.586,0.0009423
25192.582,0.00094193
25195.558,0.00094168
25198.583,0.00094156
25201.587,0.00094095
25204.584,0.00094095
25207.583,0.00093997
25210.544,0.00093997
25213.917,0.00093984
25216.920,0.00093935
25219.925,0.00093923
25222.920,0.00093898
25225.918,0.00093849
25228.921,0.00093862
25231.925,0.00093874
25234.920,0.00093874
25237.922,0.00093874
25240.925,0.00093874
25243.949,0.00093812
25246.924,0.00093849
25249.922,0.00093862
25252.925,0.000938
25255.920,0.00093812
25258.919,0.00093776
25261.922,0.00093727
25264.926,0.00093641
25267.925,0.00093604
25271.033,0.00093604
25274.247,0.0009369
25277.210,0.00093739
25280.243,0.00093751
25283.252,0.000938
25286.248,0.00093788
25289.234,0.00093763
25292.238,0.00093739
25295.581,0.00093751
25298.583,0.00093751
25301.582,0.00093727
25304.553,0.00093751
25307.561,0.0009369
25310.610,0.00093653
25313.587,0.00093604
25316.584,0.00093628
25319.584,0.00093604
25322.587,0.00093604
25325.557,0.00093592
25328.561,0.00093628
25331.591,0.00093616
25334.557,0.00093653
25337.582,0.00093592
25340.584,0.00093567
25343.552,0.00093567
25346.583,0.0009353
25349.554,0.00093493
25352.556,0.0009353
25355.564,0.00093481
25358.557,0.00093469
25361.556,0.00093432
25364.584,0.00093469
25367.526,0.00093444
25370.557,0.00093408
25373.557,0.0009342
25376.561,0.00093383
25379.562,0.00093395
25382.562,0.00093395
25385.568,0.00093358
25388.563,0.00093334
25391.582,0.00093309
25394.555,0.00093408
25397.555,0.00093518
25400.561,0.00093604
25403.561,0.00093653
25406.556,0.00093727
25409.556,0.00093763
25412.558,0.00093825
25415.562,0.00093812
25418.557,0.00093837
25421.558,0.00093849
25424.561,0.00093812
25427.559,0.00093788
25430.556,0.000938
25433.556,0.00093727
25436.563,0.00093714
25439.528,0.00093702
25442.894,0.00093665
25445.884,0.00093665
25448.861,0.00093628
25451.872,0.00093567
25454.898,0.00093567
25457.890,0.00093518
25460.881,0.00093481
25463.880,0.00093444
25466.888,0.00093457
25469.854,0.00093457
25472.855,0.00093432
25475.825,0.00093408
25478.855,0.00093383
25481.880,0.00093383
25484.881,0.00082954
25487.883,0.00066672
25490.870,0.00054526
25493.883,0.00044955
25496.882,0.00037164
25499.885,0.00030895
25502.879,0.00025741
25505.883,0.00021496
25508.854,0.00018048
25512.203,0.00014846
25515.205,0.00012564
25518.240,0.00010674
25521.176,9.1285E-05
25524.209,7.7911E-05
25527.247,6.7605E-05
25530.210,5.8893E-05
25533.210,5.19E-05
25536.214,4.5765E-05
25539.218,4.0489E-05
25542.210,3.6808E-05
25545.210,3.3741E-05
25548.214,3.0551E-05
25551.209,2.8465E-05
25554.210,2.6379E-05
25557.213,2.4907E-05
25560.208,2.3803E-05
25563.192,2.233E-05
25566.215,2.1349E-05
25569.211,2.0735E-05
25572.551,1.9508E-05
25575.527,1.9017E-05
25578.552,1.8772E-05
25581.524,1.8281E-05
25584.518,1.8159E-05
25587.532,1.7545E-05
25590.524,1.7545E-05
25593.539,1.7177E-05
25596.525,1.6809E-05
25599.493,1.6686E-05
25602.530,1.6564E-05
25605.524,1.6686E-05
25608.525,1.6318E-05
25611.506,1.6195E-05
25614.529,1.5827E-05
25617.525,1.6073E-05
25620.530,1.6195E-05
25623.527,1.5827E-05
25626.524,1.595E-05
25629.524,1.5337E-05
25632.555,1.5582E-05
25635.529,1.5582E-05
25638.526,1.5337E-05
25641.528,1.5337E-05
25644.491,1.5337E-05
25647.524,1.5459E-05
25650.555,1.5214E-05
25653.518,1.4846E-05
25656.554,1.5091E-05
25659.560,1.5214E-05
25662.523,1.5337E-05
25665.554,1.5214E-05
25668.549,1.4969E-05
25671.551,1.4846E-05
25674.551,1.4969E-05
25677.523,1.4846E-05
25680.551,1.5091E-05
25683.529,1.4969E-05
25686.525,1.4846E-05
25689.550,1.5091E-05
25692.893,1.46E-05
25695.890,1.46E-05
25698.889,1.46E-05
25701.893,1.4969E-05
25704.892,1.4846E-05
25707.873,1.4478E-05
25710.888,1.4723E-05
25713.890,1.4846E-05
25716.889,1.4846E-05
25719.863,1.4723E-05
25722.865,1.46E-05
25725.830,1.4846E-05
25728.866,1.46E-05
25731.872,1.4846E-05
25734.888,1.46E-05
25737.868,1.46E-05
25740.863,1.46E-05
25743.896,1.4723E-05
25746.871,1.4846E-05
25749.865,1.4723E-05
25752.862,1.4478E-05
25755.874,1.4478E-05
25758.865,1.4723E-05
25761.862,1.46E-05
25764.863,1.46E-05
25767.864,1.46E-05
25770.865,1.4723E-05
25773.864,1.4478E-05
25776.840,1.46E-05
25779.868,1.46E-05
25782.890,1.4478E-05
25785.868,1.4723E-05
25788.862,1.4723E-05
25892.197,1.3987E-05
25895.186,1.3999E-05
25898.183,1.4024E-05
25901.150,1.3987E-05
25904.183,1.3962E-05
25907.188,1.3962E-05
25910.225,1.4024E-05
25913.528,1.3962E-05
25916.518,1.3962E-05
25919.842,1.3974E-05
25922.866,1.3949E-05
25925.836,1.3962E-05
25928.839,1.3987E-05
25931.818,1.3974E-05
25934.836,1.3987E-05
25937.830,1.3962E-05
25940.840,1.3962E-05
25943.840,1.3974E-05
25946.836,1.3987E-05
25949.835,1.3987E-05
25953.159,1.3987E-05
25956.157,1.4024E-05
25959.157,1.3999E-05
25962.162,1.4036E-05
25965.188,1.4048E-05
25968.164,1.4036E-05
25971.164,1.4061E-05
25974.162,1.4024E-05
25977.177,1.4061E-05
25980.165,1.4098E-05
25983.164,1.4086E-05
25986.163,1.4135E-05
25989.172,1.4135E-05
25992.167,1.416E-05
25995.169,1.4123E-05
25998.163,1.416E-05
26001.163,1.4172E-05
26004.164,1.4148E-05
26007.162,1.416E-05
26010.171,1.4222E-05
26013.503,1.4148E-05
26016.504,1.4172E-05
26019.482,1.4197E-05
26022.503,1.4197E-05
26025.476,1.4197E-05
26028.522,1.4197E-05
26031.847,1.4234E-05
26034.842,1.421E-05
26037.820,1.4222E-05
26040.849,1.4271E-05
26043.921,1.4222E-05
26047.847,1.4271E-05
26050.841,1.4284E-05
26053.841,1.4271E-05
26056.808,1.4284E-05
26059.825,1.4296E-05
26062.841,1.4309E-05
26065.815,1.4321E-05
26068.816,1.4333E-05
26071.895,1.4321E-05
26075.144,1.4321E-05
26078.134,1.4333E-05
26081.134,1.4358E-05
26084.172,1.4358E-05
26087.166,1.4333E-05
26090.503,1.4346E-05
26093.473,1.4358E-05
26096.474,1.4358E-05
26099.482,1.4371E-05
26102.472,1.4371E-05
26105.479,1.4346E-05
26108.476,1.4346E-05
26111.476,1.4358E-05
26114.503,1.4309E-05
26117.479,1.4333E-05
26120.475,1.4321E-05
26123.487,1.4296E-05
26126.471,1.4321E-05
26129.474,1.4309E-05
26132.815,1.4321E-05
26135.815,1.4296E-05
26138.816,1.4284E-05
26141.818,1.4284E-05
26144.818,1.4296E-05
26147.820,1.4234E-05
26150.816,1.4271E-05
26153.820,1.4247E-05
26156.818,1.4222E-05
26159.836,1.4234E-05
26163.143,1.4234E-05
26166.134,1.4234E-05
26169.136,1.4222E-05
26172.136,1.4222E-05
26175.136,1.4185E-05
26178.142,1.4197E-05
26181.136,1.4222E-05
26184.136,1.4197E-05
26187.141,1.4185E-05
26190.141,1.421E-05
26292.164,1.4206E-05
26295.447,1.4204E-05
26298.448,1.4215E-05
26301.447,1.423E-05
26304.469,1.4226E-05
26307.793,1.423E-05
26310.787,1.4241E-05
26313.788,1.4238E-05
26316.793,1.4236E-05
26319.794,1.4252E-05
26322.790,1.4246E-05
26325.790,1.4236E-05
26328.794,1.4243E-05
26331.794,1.4248E-05
26334.789,1.4233E-05
26338.110,1.4239E-05
26341.111,1.4244E-05
26344.113,1.4234E-05
26347.114,1.4232E-05
26350.110,1.4244E-05
26353.449,1.4237E-05
26356.454,1.4231E-05
26359.451,1.4241E-05
26362.448,1.4237E-05
26365.451,1.4226E-05
26368.452,1.4233E-05
26371.430,1.4237E-05
26374.448,1.4227E-05
26377.446,1.4228E-05
26380.449,1.4242E-05
26383.475,1.4238E-05
26386.449,1.4238E-05
26389.448,1.4249E-05
26392.453,1.4255E-05
26395.424,1.4252E-05
26398.439,1.4262E-05
26401.407,1.4275E-05
26404.385,1.4273E-05
26407.441,1.4281E-05
26410.448,1.4295E-05
26413.717,1.4299E-05
26416.756,1.4303E-05
26419.772,1.4317E-05
26422.763,1.4322E-05
26425.763,1.4319E-05
26428.746,1.4332E-05
26432.111,1.434E-05
26435.089,1.4334E-05
26438.108,1.434E-05
26441.080,1.4352E-05
26444.109,1.4352E-05
26447.391,1.4347E-05
26450.417,1.4361E-05
26453.426,1.4359E-05
26456.423,1.4352E-05
26459.393,1.4365E-05
26462.428,1.4365E-05
26465.415,1.4355E-05
26468.422,1.4356E-05
26471.429,1.4363E-05
26474.417,1.4355E-05
26477.422,1.4356E-05
26480.418,1.4365E-05
26483.431,1.4366E-05
26486.422,1.4358E-05
26489.421,1.4372E-05
26492.422,1.4611E-05
26495.397,1.7699E-05
26498.396,2.5998E-05
26501.396,3.2509E-05
26504.396,3.7778E-05
26507.408,4.2089E-05
26510.399,4.5623E-05
26513.397,4.8531E-05
26516.399,5.0911E-05
26519.399,5.287E-05
26522.395,5.4476E-05
26725.074,0.0010244
26728.368,0.0010232
26731.383,0.0010222
26734.372,0.0010213
26737.369,0.0010209
26740.364,0.00102
26743.399,0.0010195
26746.345,0.001019
26749.339,0.0010191
26752.380,0.0010201
26755.389,0.0010213
26758.354,0.0010214
26761.382,0.0010219
26764.373,0.001022
26767.366,0.0010224
26770.369,0.0010224
26773.370,0.0010222
26776.418,0.0010222
26779.717,0.0010217
26782.710,0.0010213
26786.060,0.0010207
26789.032,0.0010206
26792.038,0.0010203
26795.039,0.0010203
26798.032,0.0010196
26801.030,0.0010193
26804.032,0.0010191
26806.998,0.0010184
26810.027,0.0010184
26813.032,0.0010178
26816.032,0.0010174
26819.037,0.0010169
26822.032,0.001018
26825.031,0.0010186
26828.035,0.001019
26831.366,0.0010196
26834.369,0.0010192
26837.402,0.0010197
26840.710,0.0010197
26843.719,0.0010196
26847.035,0.0010197
26850.033,0.0010193
26853.039,0.0010193
26856.373,0.0010195
26859.377,0.0010195
26862.371,0.0010193
26865.374,0.0010192
26868.369,0.0010187
26871.370,0.0010191
26874.374,0.0010186
26877.370,0.0010184
26880.369,0.0010181
26883.348,0.0010181
26886.374,0.0010175
26889.370,0.0010178
26892.342,0.0010178
26895.343,0.0010173
26898.344,0.0010174
26901.337,0.0010174
26904.345,0.001017
26907.350,0.0010168
26910.399,0.0010165
26913.685,0.0010181
26916.683,0.0010193
26919.684,0.0010198
26922.715,0.0010203
26925.684,0.0010208
26928.690,0.0010206
26931.690,0.0010203
26934.685,0.0010208
26937.690,0.0010207
26940.689,0.0010201
26943.697,0.0010207
26946.684,0.0010202
26949.692,0.0010203
26952.712,0.0010202
26955.691,0.0010201
26958.695,0.0010201
26961.685,0.0010197
26964.761,0.0010196
26968.038,0.0010197
26971.032,0.0010192
26974.031,0.0010192
26977.016,0.0010189
26980.032,0.0010182
26983.031,0.0010181
26986.031,0.0010179
26989.031,0.0010178
26992.031,0.0010176
26995.035,0.0010173
26998.032,0.0010171
27001.012,0.0010169
27004.038,0.0010163
27007.035,0.001016
27010.014,0.0010168
27013.031,0.0010171
27016.343,0.0010174
27019.354,0.0010175
27022.342,0.0010176
27025.703,0.0010173
27029.035,0.0010168
27032.038,0.0010163
27035.032,0.0010163
27038.031,0.0010157
27041.030,0.0010149
27044.030,0.0010146
27047.032,0.0010137
27050.031,0.001013
27053.032,0.0010124
27055.999,0.0010116
27059.036,0.001011
27062.035,0.0010098
27065.035,0.0010088
27068.036,0.0010083
27071.000,0.0010076
27074.034,0.0010067
27077.032,0.001006
27080.038,0.0010054
27083.325,0.0010044
27086.343,0.0010035
27089.318,0.0010027
27092.346,0.001002
27095.318,0.0010018
27098.319,0.0010012
27101.320,0.0010019
27104.652,0.0010025
27107.664,0.0010028
27110.662,0.0010028
27113.659,0.0010028
27116.659,0.001002
27119.664,0.0010017
27122.685,0.0010014
27125.662,0.0010009
27128.659,0.0010006
27131.639,0.00099972
27134.638,0.00099898
27137.638,0.00099874
27140.634,0.000998
27143.628,0.00099726
27146.631,0.00099591
27149.600,0.0009953
27152.634,0.00099469
27155.643,0.00099334
27158.631,0.00099321
27161.633,0.00099223
27164.637,0.00099187
27167.633,0.00099076
27170.634,0.00099052
27173.637,0.00098941
27176.586,0.00098929
27179.639,0.00098892
27182.635,0.00098831
27185.606,0.00098831
27188.632,0.00098757
27191.632,0.0009872
27194.610,0.00098708
27197.607,0.00098683
27200.635,0.00098733
27203.612,0.00098831
27206.606,0.00098917
27209.593,0.00098953
27212.576,0.00098953
27215.609,0.0009899
27218.607,0.00099039
27221.637,0.00099027
27224.574,0.00099002
27227.611,0.00099015
27230.608,0.00099052
27233.637,0.00098978
27236.633,0.00098978
27239.599,0.0009899
27242.607,0.00098978
27245.606,0.00098941
27248.604,0.00098941
27251.611,0.00098904
27254.608,0.00098855
27257.632,0.00098855
27260.604,0.00098843
27263.611,0.00098843
27266.632,0.00098794
27269.610,0.00098794
27272.608,0.00098745
27275.611,0.00098745
27278.609,0.00098782
27281.607,0.0009872
27284.616,0.00098745
27287.611,0.00098708
27290.608,0.00098745
27293.600,0.0009872
27296.603,0.00098733
27299.611,0.00098782
27302.607,0.00098818
27305.606,0.00098953
27308.608,0.00099064
27311.606,0.00099137
27314.611,0.00099187
27317.573,0.00099236
27320.608,0.00099272
27323.611,0.00099285
27326.951,0.00099309
27329.944,0.00099321
27332.955,0.00099334
27336.265,0.00099321
27339.269,0.00099297
27342.268,0.00099309
27345.265,0.00099272
27348.267,0.00099223
27351.269,0.00099236
27354.265,0.00099174
27357.265,0.00099248
27360.236,0.00099223
27363.270,0.00099162
27366.265,0.00099174
27369.264,0.00099125
27372.265,0.00099101
27375.267,0.00099101
27378.263,0.00099064
27381.232,0.00099027
27384.269,0.00098978
27387.270,0.00098953
27390.267,0.00098904
27393.257,0.0009888
27396.234,0.00098806
27399.233,0.00098769
27402.266,0.0009872
27405.265,0.00098696
27408.272,0.00098634
27411.214,0.00098573
27414.265,0.00098512
27417.917,0.00098475
27420.917,0.00098426
27423.922,0.00098377
27426.954,0.00098315
27430.245,0.00098279
27433.240,0.00098229
27436.240,0.00098242
27439.209,0.00098205
27442.239,0.00098144
27445.264,0.00098193
27448.240,0.00098144
27451.245,0.0009818
27454.267,0.00098352
27457.243,0.00098475
27460.251,0.00098548
27463.239,0.0009861
27466.243,0.00098634
27469.243,0.00098671
27472.239,0.00098733
27475.248,0.00098745
27478.245,0.00098769
27481.239,0.00098794
27484.240,0.00098745
27487.238,0.00098782
27490.240,0.00098843
27493.196,0.00098831
27496.239,0.00098855
27499.249,0.0009888
27502.240,0.0009888
27505.264,0.00098929
27508.240,0.0009888
27511.238,0.00098855
27514.243,0.00098855
27517.243,0.00098843
27520.243,0.00098818
27523.226,0.00098794
27526.227,0.00098794
27529.554,0.00098769
27532.549,0.00098757
27535.580,0.00098806
27538.553,0.0009888
27541.579,0.00098978
27544.554,0.00099052
27547.559,0.00099052
27550.555,0.00099113
27553.585,0.00099064
27556.554,0.00099064
27559.552,0.00099113
27562.896,0.00099076
27565.915,0.00099064
27568.892,0.00099027
27571.899,0.00099002
27574.891,0.00098978
27577.890,0.00098929
27580.891,0.00098953
27583.892,0.00098892
27586.890,0.00098818
27589.892,0.00098818
27592.852,0.00098794
27595.897,0.00098806
27598.894,0.00098769
27601.893,0.00098745
27604.891,0.00098733
27607.894,0.00098733
27610.896,0.00098733
27613.892,0.00098708
27616.892,0.00098696
27619.864,0.00098683
27622.894,0.00098659
27625.919,0.00098634
27628.902,0.00098598
27631.895,0.00098598
27634.891,0.00098548
27637.892,0.00098524
27640.891,0.00098487
27643.896,0.0009845
27646.896,0.00098499
27649.893,0.00098598
27653.211,0.00098647
27656.212,0.00098683
27659.219,0.00098733
27662.211,0.0009872
27665.212,0.00098757
27668.213,0.00098745
27671.217,0.00098745
27674.213,0.0009872
27677.211,0.00098708
27680.217,0.00098683
27683.218,0.00098647
27686.245,0.00098536
27689.213,0.00098524
27692.184,0.00098475
27695.213,0.0009845
27698.212,0.00098401
27701.211,0.00098389
27704.212,0.00098303
27707.217,0.00098279
27710.199,0.00098205
27713.212,0.0009818
27716.213,0.00098168
27719.217,0.00098119
27722.212,0.00098131
27725.213,0.00098107
27728.216,0.0009807
27731.217,0.00098033
27734.212,0.00098033
27737.189,0.00098033
27740.219,0.00097996
27743.207,0.00097972
27746.212,0.00097972
27749.211,0.00097996
27752.213,0.00098119
27755.194,0.00098254
27758.213,0.00098328
27761.211,0.00098438
27764.212,0.00098487
27767.217,0.00098512
27770.213,0.00098585
27773.179,0.00098598
27776.231,0.0009861
27779.192,0.00098634
27782.191,0.00098598
27785.189,0.00098598
27788.218,0.00098561
27791.185,0.00098548
27794.211,0.00098512
27797.186,0.00098499
27800.187,0.0009845
27803.194,0.00098414
27806.211,0.00098401
27809.187,0.0009834
27812.186,0.00098377
27815.189,0.00098352
27818.186,0.00098377
27821.190,0.00098328
27824.186,0.00098315
27827.189,0.00098279
27830.192,0.00098279
27833.189,0.00098229
27836.186,0.00098217
27839.186,0.00098193
27842.193,0.00098193
27845.186,0.00098168
27848.190,0.0009818
27851.194,0.00098168
27854.153,0.00098144
27857.186,0.00098119
27860.185,0.00098107
27863.187,0.0009807
27866.188,0.00098045
27869.188,0.00098058
27872.187,0.00098045
27875.191,0.00098021
27878.194,0.00097996
27881.189,0.00098009
27884.187,0.00097996
27887.194,0.00098009
27890.192,0.00097984
27893.225,0.0009796
27896.527,0.00097947
27899.506,0.00097947
27902.496,0.0009791
27905.522,0.0009791
27908.497,0.00097898
27911.525,0.00097923
27914.501,0.0009791
27917.523,0.00097874
27920.556,0.0009791
27923.527,0.00097886
27926.834,0.00097861
27929.835,0.00097825
27932.834,0.00097788
27935.839,0.00097776
27938.834,0.00097714
27941.836,0.00097714
27944.838,0.00097714
27947.839,0.00097714
27950.835,0.00097837
27953.839,0.0009791
27956.837,0.00097984
27959.872,0.00098009
27962.834,0.00098033
27965.835,0.00098045
27968.836,0.00098033
27971.844,0.00097996
27974.837,0.00097996
27977.856,0.00097984
27980.834,0.0009796
27983.840,0.00097984
27986.836,0.00097935
27989.836,0.00097947
27992.799,0.00097861
27995.820,0.00097812
27999.157,0.00097849
28002.174,0.000978
28005.181,0.00097788
28008.159,0.000978
28011.159,0.00097776
28014.155,0.00097726
28017.161,0.0009769
28020.155,0.00097702
28023.197,0.00097788
28026.104,0.0009791
28029.134,0.00098009
28032.159,0.00098033
28035.162,0.00098045
28038.154,0.00098095
28041.156,0.00098095
28044.164,0.00098144
28047.163,0.00098131
28050.163,0.00098107
28053.166,0.00098119
28056.164,0.00098082
28059.109,0.0009807
28062.160,0.00098082
28065.167,0.00098058
28068.161,0.00098119
28071.160,0.00098095
28074.159,0.00098107
28077.164,0.00098131
28080.160,0.00098119
28083.162,0.0009818
28086.134,0.00098193
28089.127,0.00098193
28092.164,0.00098205
28095.162,0.00098168
28098.160,0.00098156
28101.135,0.00098193
28104.103,0.00098193
28107.133,0.0009818
28110.142,0.0009818
28113.134,0.00098303
28116.135,0.00098438
28119.141,0.00098463
28122.134,0.00098512
28125.128,0.00098548
28128.127,0.00098561
28131.130,0.00098573
28134.148,0.00098524
28137.127,0.00098561
28140.105,0.00098561
28143.149,0.00098585
28146.131,0.00098561
28149.135,0.00098561
28152.135,0.00098524
28155.139,0.00098536
28158.138,0.00098512
28161.133,0.00098475
28164.134,0.00098499
28167.093,0.00098463
28170.134,0.00098499
28173.134,0.00098438
28176.108,0.00098438
28179.139,0.00098438
28182.134,0.00098414
28185.133,0.00098426
28188.134,0.00098426
28191.134,0.00098401
28194.137,0.00098377
28197.135,0.00098389
28200.132,0.00098352
28203.138,0.00098328
28206.138,0.00098291
28209.133,0.00098217
28212.137,0.00098242
28215.140,0.00098193
28218.136,0.00098131
28221.133,0.00098095
28224.132,0.00098082
28227.137,0.00098058
28230.135,0.00098045
28233.133,0.00098033
28236.133,0.00097935
28239.134,0.00097898
28242.138,0.00097886
28245.134,0.00097849
28248.100,0.00097837
28251.113,0.00097825
28254.138,0.00097849
28257.134,0.00097849
28260.142,0.00097837
28263.141,0.00097861
28266.108,0.00097898
28269.115,0.00097947
28272.108,0.00098107
28275.142,0.00098131
28278.102,0.00098168
28281.133,0.00098205
28284.134,0.00098242
28287.133,0.00098279
28290.138,0.00098315
28293.103,0.00098328
28296.111,0.0009834
28299.114,0.00098328
28302.107,0.00098328
28305.113,0.00098291
28308.109,0.00098303
28311.107,0.00098266
28314.125,0.00098254
28317.104,0.00098229
28320.108,0.00098193
28323.117,0.0009818
28326.093,0.00098217
28329.107,0.0009818
28332.108,0.00098242
28335.108,0.00098205
28338.108,0.00098291
28341.108,0.00098254
28344.108,0.00098254
28347.113,0.00098217
28350.108,0.00098168
28353.113,0.00098119
28356.075,0.00098082
28359.109,0.00098009
28362.108,0.00097984
28365.114,0.00098131
28368.108,0.0009818
28371.119,0.00098229
28374.106,0.00098266
28377.106,0.00098291
28380.109,0.00098352
28383.108,0.00098352
28386.113,0.00098303
28389.112,0.00098315
28392.114,0.00098303
28395.112,0.00098328
28398.108,0.00098291
28401.112,0.00098291
28404.111,0.00098266
28407.109,0.00098242
28410.126,0.00098229
28413.114,0.00098254
28416.109,0.00098229
28419.131,0.00098193
28422.446,0.00098168
28425.445,0.00098193
28428.391,0.00098193
28431.450,0.0009818
28434.420,0.00098131
28437.421,0.00098107
28440.509,0.00098119
28443.728,0.00098021
28446.755,0.00097996
28449.759,0.00097984
28452.793,0.00097972
28455.761,0.00098095
28458.767,0.00098193
28461.758,0.00098193
28464.787,0.00098229
28467.768,0.00098254
28470.762,0.00098266
28473.763,0.00098291
28476.761,0.00098266
28479.762,0.00098266
28482.724,0.00098229
28485.766,0.00098266
28488.762,0.00098229
28491.767,0.00098205
28494.765,0.00098193
28497.765,0.00091763
28500.756,0.00073175
28503.762,0.00059666
28506.766,0.00049115
28509.762,0.00040587
28512.762,0.0003368
28515.770,0.00028011
28518.761,0.00023386
28521.763,0.00019582
28525.083,0.00016134
28528.108,0.0001357
28531.118,0.00011521
28534.082,9.7665E-05
28537.108,8.38E-05
28540.085,7.2267E-05
28543.082,6.2697E-05
28546.053,5.4599E-05
28549.088,4.8587E-05
28552.083,4.2698E-05
28555.086,3.8403E-05
28558.086,3.509E-05
28561.084,3.1778E-05
28564.082,2.9569E-05
28567.085,2.7115E-05
28570.083,2.5398E-05
28573.082,2.4048E-05
28576.051,2.2453E-05
28579.087,2.1717E-05
28582.083,2.0735E-05
28585.109,2.0244E-05
28588.058,1.9385E-05
28591.085,1.8895E-05
28594.080,1.8649E-05
28597.087,1.779E-05
28600.081,1.7422E-05
28603.086,1.7668E-05
28606.086,1.7177E-05
28609.052,1.7177E-05
28612.085,1.6686E-05
28615.086,1.6441E-05
28618.084,1.6195E-05
28621.082,1.6195E-05
28624.081,1.6073E-05
28627.086,1.5827E-05
28630.081,1.5705E-05
28633.081,1.595E-05
28636.079,1.5582E-05
28639.079,1.5705E-05
28642.082,1.5705E-05
28645.445,1.4969E-05
28648.450,1.4969E-05
28651.431,1.5214E-05
28654.424,1.5337E-05
28657.447,1.4846E-05
28660.419,1.5337E-05
28663.447,1.4723E-05
28666.425,1.5091E-05
28669.455,1.5091E-05
28672.407,1.5091E-05
28675.429,1.4723E-05
28678.422,1.4846E-05
28681.415,1.4969E-05
28684.462,1.46E-05
28687.375,1.4723E-05
28690.391,1.4969E-05
28693.404,1.4723E-05
28696.427,1.4478E-05
28699.396,1.46E-05
28702.445,1.4969E-05
28705.764,1.5091E-05
28708.761,1.4969E-05
28711.761,1.4846E-05
28714.767,1.4478E-05
28717.760,1.46E-05
28720.727,1.46E-05
28723.740,1.4355E-05
28726.758,1.4723E-05
28729.762,1.4723E-05
28732.735,1.46E-05
28735.760,1.4723E-05
28738.761,1.4232E-05
28741.730,1.4723E-05
28744.737,1.4478E-05
28747.738,1.46E-05
28750.766,1.4478E-05
28753.764,1.4723E-05
28756.760,1.4232E-05
28759.679,1.4355E-05
28762.730,1.4355E-05
28765.727,1.4478E-05
28768.738,1.411E-05
28771.740,1.411E-05
28774.735,1.3987E-05
28777.736,1.3987E-05
28780.761,1.411E-05
28784.081,1.411E-05
28787.061,1.4355E-05
28790.082,1.4232E-05
28793.108,1.4478E-05
28796.142,1.4478E-05
28799.419,1.46E-05
28802.446,1.4478E-05
28805.424,1.4478E-05
28906.747,1.3553E-05
28910.022,1.3541E-05
28913.055,1.3553E-05
28916.055,1.3528E-05
28919.056,1.3565E-05
28922.425,1.3553E-05
28925.394,1.3553E-05
28928.398,1.3578E-05
28931.402,1.3541E-05
28934.394,1.3578E-05
28937.710,1.3541E-05
28940.724,1.3578E-05
28943.730,1.3565E-05
28946.705,1.3553E-05
28949.675,1.3565E-05
28953.060,1.3553E-05
28956.054,1.3541E-05
28959.055,1.3516E-05
28962.062,1.3565E-05
28965.055,1.3553E-05
28968.391,1.3541E-05
28971.375,1.3491E-05
28974.393,1.3503E-05
28977.391,1.3503E-05
28980.398,1.3503E-05
28983.709,1.3516E-05
28986.713,1.3503E-05
28989.710,1.3503E-05
28992.677,1.3528E-05
28995.718,1.3441E-05
28998.704,1.3491E-05
29001.709,1.3491E-05
29004.700,1.3491E-05
29007.699,1.3491E-05
29010.708,1.3528E-05
29013.708,1.3528E-05
29016.708,1.3503E-05
29019.709,1.3541E-05
29022.700,1.3503E-05
29025.702,1.3565E-05
29028.996,1.3578E-05
29032.026,1.3553E-05
29035.023,1.3553E-05
29038.020,1.3541E-05
29041.028,1.3615E-05
29044.033,1.3541E-05
29047.029,1.3541E-05
29050.372,1.3541E-05
29053.395,1.3615E-05
29056.368,1.359E-05
29059.343,1.3565E-05
29062.713,1.3565E-05
29065.709,1.3553E-05
29068.709,1.3565E-05
29071.706,1.3578E-05
29074.675,1.3565E-05
29077.689,1.3578E-05
29080.707,1.3627E-05
29083.693,1.3565E-05
29087.034,1.3565E-05
29090.030,1.3578E-05
29093.021,1.3541E-05
29096.001,1.3553E-05
29099.030,1.3565E-05
29101.997,1.3528E-05
29105.028,1.3541E-05
29108.030,1.3578E-05
29111.028,1.3615E-05
29114.029,1.3578E-05
29117.025,1.3565E-05
29120.030,1.3603E-05
29122.998,1.3603E-05
29125.999,1.3627E-05
29129.030,1.3615E-05
29132.031,1.364E-05
29135.033,1.364E-05
29138.031,1.3652E-05
29141.025,1.3677E-05
29144.030,1.3677E-05
29147.379,1.3714E-05
29150.361,1.3702E-05
29153.367,1.3739E-05
29156.367,1.3726E-05
29159.335,1.3776E-05
29162.372,1.3739E-05
29165.369,1.3751E-05
29168.283,1.3788E-05
29171.344,1.3813E-05
29174.371,1.3813E-05
29177.360,1.3764E-05
29180.345,1.3764E-05
29183.336,1.3801E-05
29186.367,1.3813E-05
29189.348,1.3838E-05
29192.366,1.3801E-05
29195.351,1.3826E-05
29198.367,1.3863E-05
29201.367,1.3863E-05
29204.397,1.3863E-05
29306.673,1.419E-05
29309.626,1.4217E-05
29312.656,1.423E-05
29315.662,1.4231E-05
29318.661,1.4249E-05
29321.657,1.4265E-05
29324.662,1.4263E-05
29327.678,1.4273E-05
29330.659,1.4294E-05
29333.657,1.4296E-05
29336.657,1.4301E-05
29339.662,1.4318E-05
29343.067,1.4323E-05
29346.341,1.4318E-05
29349.347,1.4332E-05
29352.341,1.4342E-05
29355.321,1.4331E-05
29358.667,1.4339E-05
29361.658,1.4348E-05
29364.660,1.4337E-05
29368.035,1.4338E-05
29370.996,1.434E-05
29374.030,1.4329E-05
29377.026,1.4322E-05
29380.029,1.4328E-05
29383.340,1.4316E-05
29386.315,1.4302E-05
29389.315,1.4305E-05
29392.310,1.43E-05
29395.347,1.4286E-05
29398.320,1.4285E-05
29401.315,1.4286E-05
29404.315,1.4273E-05
29407.319,1.427E-05
29410.317,1.427E-05
29413.316,1.4267E-05
29416.315,1.4254E-05
29419.287,1.4258E-05
29422.319,1.4262E-05
29425.315,1.4249E-05
29428.323,1.4249E-05
29431.315,1.4255E-05
29434.314,1.4248E-05
29437.316,1.4246E-05
29440.285,1.4255E-05
29444.026,1.4248E-05
29447.310,1.4253E-05
29450.336,1.4263E-05
29453.656,1.426E-05
29456.625,1.4259E-05
29459.648,1.4275E-05
29462.631,1.4279E-05
29465.627,1.427E-05
29468.658,1.4285E-05
29471.630,1.4292E-05
29474.630,1.4289E-05
29477.638,1.4296E-05
29480.633,1.4313E-05
29483.636,1.4312E-05
29487.033,1.4319E-05
29490.318,1.4332E-05
29493.317,1.4336E-05
29496.325,1.4334E-05
29499.294,1.4352E-05
29502.315,1.4398E-05
29505.310,1.4996E-05
29508.284,2.1604E-05
29511.277,2.9014E-05
29514.281,3.4937E-05
29517.278,3.9759E-05
29520.280,4.372E-05
29523.259,4.6965E-05
29526.292,4.9625E-05
29529.279,5.1815E-05
29532.283,5.361E-05
29736.597,0.001031
29739.588,0.001029
29742.957,0.0010274
29745.914,0.0010265
29748.920,0.0010261
29751.915,0.0010257
29754.915,0.0010256
29757.912,0.0010252
29760.917,0.0010246
29763.886,0.0010238
29766.915,0.0010238
29769.915,0.0010232
29772.916,0.0010229
29775.920,0.001022
29778.915,0.001022
29781.915,0.0010213
29784.920,0.0010207
29787.924,0.0010202
29790.914,0.0010198
29793.913,0.0010207
29796.942,0.0010217
29799.915,0.0010223
29802.915,0.0010223
29805.918,0.0010222
29808.915,0.0010224
29811.922,0.001022
29814.915,0.0010219
29817.915,0.0010209
29820.915,0.0010211
29823.920,0.0010206
29826.915,0.0010201
29829.914,0.0010193
29832.921,0.0010189
29835.921,0.0010185
29838.915,0.0010176
29841.914,0.0010178
29844.885,0.0010168
29847.917,0.0010164
29850.914,0.0010163
29853.913,0.0010153
29857.263,0.0010151
29860.277,0.0010152
29863.237,0.0010146
29866.242,0.0010143
29869.241,0.0010138
29872.231,0.0010135
29875.224,0.0010132
29878.214,0.0010142
29881.207,0.0010152
29884.210,0.0010155
29887.578,0.0010163
29890.544,0.0010163
29893.575,0.0010165
29896.578,0.0010168
29899.556,0.0010165
29902.580,0.0010168
29905.583,0.0010166
29908.547,0.0010169
29911.582,0.0010164
29914.583,0.0010166
29917.891,0.0010165
29920.889,0.0010163
29923.896,0.0010162
29926.888,0.0010154
29929.890,0.0010153
29932.888,0.0010144
29935.890,0.0010149
29938.890,0.001014
29941.889,0.0010136
29944.891,0.0010137
29947.894,0.0010146
29950.894,0.0010158
29953.891,0.0010159
29956.888,0.0010164
29959.859,0.0010169
29962.894,0.0010171
29965.889,0.001017
29968.890,0.0010174
29971.918,0.0010171
29975.236,0.001017
29978.552,0.0010171
29981.551,0.0010166
29984.557,0.0010165
29987.558,0.0010163
29990.551,0.0010159
29993.550,0.0010157
29996.557,0.0010157
29999.552,0.0010152
